participant,blockID,trialID,condition,screenID,leftColor,rightColor,leftImage,rightImage,correctObject,correctResp,response,acc,rt,target,distractor
12,1,1,A,memory-resp,#FFFFFF,#7d3f26,image26,image293,NA,right,NULL,FALSE,NA,image293,image293
12,1,1,A,memory-resp,#206c88,#FFFFFF,image23,image26,NA,right,NULL,FALSE,NA,image23,image26
12,1,1,A,memory-resp,#662b6e,#FFFFFF,image43,image26,NA,right,NULL,FALSE,NA,image43,image26
12,1,1,A,memory-resp,#FFFFFF,#17ba22,image26,image93,NA,left,NULL,FALSE,NA,image93,image26
12,1,1,A,retrieval,NA,NA,NA,NA,image43,NA,image43,TRUE,4364,image43,image293
12,1,1,A,retrieval,NA,NA,NA,NA,image23,NA,image293,FALSE,3789.0999999940395,image23,image293
12,1,1,A,retrieval,NA,NA,NA,NA,image93,NA,image43,FALSE,2762.9000000059605,image93,image293
12,1,1,A,retrieval,NA,NA,NA,NA,image293,NA,image93,FALSE,3007.8999999910593,image293,image293
12,1,2,A,memory-resp,#125eab,#FFFFFF,image382,image26,NA,right,NULL,FALSE,NA,image382,image26
12,1,2,A,memory-resp,#ba21a8,#FFFFFF,image292,image26,NA,right,NULL,FALSE,NA,image292,image26
12,1,2,A,memory-resp,#2e6b2f,#FFFFFF,image197,image26,NA,left,NULL,FALSE,NA,image197,image197
12,1,2,A,memory-resp,#FFFFFF,#a47028,image26,image117,NA,left,NULL,FALSE,NA,image117,image26
12,1,2,A,retrieval,NA,NA,NA,NA,image292,NA,image292,TRUE,4960.9000000059605,image292,image26
12,1,2,A,retrieval,NA,NA,NA,NA,image382,NA,image117,FALSE,6605,image382,image26
12,1,2,A,retrieval,NA,NA,NA,NA,image117,NA,image392,FALSE,5077.5,image117,image26
12,1,2,A,retrieval,NA,NA,NA,NA,image197,NA,image197,TRUE,1164.7000000029802,image197,image26
12,1,3,A,memory-resp,#FFFFFF,#1034d5,image26,image228,NA,right,NULL,FALSE,NA,image228,image228
12,1,3,A,memory-resp,#FFFFFF,#ad345e,image26,image14,NA,left,NULL,FALSE,NA,image14,image26
12,1,3,A,memory-resp,#b1a43e,#FFFFFF,image141,image26,NA,right,NULL,FALSE,NA,image141,image26
12,1,3,A,memory-resp,#FFFFFF,#38855e,image26,image129,NA,left,NULL,FALSE,NA,image129,image26
12,1,3,A,retrieval,NA,NA,NA,NA,image14,NA,image14,TRUE,5146.29999999702,image14,image228
12,1,3,A,retrieval,NA,NA,NA,NA,image141,NA,image141,TRUE,1718.5999999940395,image141,image228
12,1,3,A,retrieval,NA,NA,NA,NA,image228,NA,image228,TRUE,3498.2999999970198,image228,image228
12,1,3,A,retrieval,NA,NA,NA,NA,image129,NA,image129,TRUE,1095,image129,image228
12,1,4,A,memory-resp,#FFFFFF,#2e7f7d,image26,image330,NA,right,NULL,FALSE,NA,image330,image330
12,1,4,A,memory-resp,#458712,#FFFFFF,image156,image26,NA,right,NULL,FALSE,NA,image156,image26
12,1,4,A,memory-resp,#FFFFFF,#502975,image26,image353,NA,left,NULL,FALSE,NA,image353,image26
12,1,4,A,memory-resp,#FFFFFF,#a3483e,image26,image285,NA,right,NULL,FALSE,NA,image285,image285
12,1,4,A,retrieval,NA,NA,NA,NA,image156,NA,image330,FALSE,7251.100000008941,image156,image330
12,1,4,A,retrieval,NA,NA,NA,NA,image353,NA,image353,TRUE,2912.300000011921,image353,image330
12,1,4,A,retrieval,NA,NA,NA,NA,image330,NA,image156,FALSE,1483,image330,image330
12,1,4,A,retrieval,NA,NA,NA,NA,image285,NA,image285,TRUE,1127.300000011921,image285,image330
12,1,5,A,memory-resp,#ca2bb5,#FFFFFF,image257,image26,NA,left,NULL,FALSE,NA,image257,image257
12,1,5,A,memory-resp,#0a409e,#FFFFFF,image226,image26,NA,left,NULL,FALSE,NA,image226,image226
12,1,5,A,memory-resp,#FFFFFF,#8a5433,image26,image56,NA,right,NULL,FALSE,NA,image56,image56
12,1,5,A,memory-resp,#FFFFFF,#2fd11a,image26,image151,NA,right,NULL,FALSE,NA,image151,image151
12,1,5,A,retrieval,NA,NA,NA,NA,image56,NA,image56,TRUE,2455.6000000089407,image56,image257
12,1,5,A,retrieval,NA,NA,NA,NA,image226,NA,image226,TRUE,1967.2000000029802,image226,image257
12,1,5,A,retrieval,NA,NA,NA,NA,image151,NA,image151,TRUE,5264,image151,image257
12,1,5,A,retrieval,NA,NA,NA,NA,image257,NA,image60,FALSE,1160.2000000029802,image257,image257
12,1,6,A,memory-resp,#4a9ab0,#FFFFFF,image422,image26,NA,left,NULL,FALSE,NA,image422,image422
12,1,6,A,memory-resp,#609d0c,#FFFFFF,image244,image26,NA,right,NULL,FALSE,NA,image244,image26
12,1,6,A,memory-resp,#933a34,#FFFFFF,image370,image26,NA,left,NULL,FALSE,NA,image370,image370
12,1,6,A,memory-resp,#5d2a92,#FFFFFF,image116,image26,NA,right,NULL,FALSE,NA,image116,image26
12,1,6,A,retrieval,NA,NA,NA,NA,image370,NA,image370,TRUE,4082.2000000029802,image370,image422
12,1,6,A,retrieval,NA,NA,NA,NA,image422,NA,image422,TRUE,5156.100000008941,image422,image422
12,1,6,A,retrieval,NA,NA,NA,NA,image116,NA,image116,TRUE,2321.6000000089407,image116,image422
12,1,6,A,retrieval,NA,NA,NA,NA,image244,NA,image244,TRUE,1569.5,image244,image422
12,1,7,A,memory-resp,#0e1da4,#FFFFFF,image188,image26,NA,right,NULL,FALSE,NA,image188,image26
12,1,7,A,memory-resp,#FFFFFF,#aa1888,image26,image65,NA,right,NULL,FALSE,NA,image65,image65
12,1,7,A,memory-resp,#428553,#FFFFFF,image176,image26,NA,left,NULL,FALSE,NA,image176,image176
12,1,7,A,memory-resp,#FFFFFF,#dad71b,image26,image103,NA,right,NULL,FALSE,NA,image103,image103
12,1,7,A,retrieval,NA,NA,NA,NA,image176,NA,image188,FALSE,3434.0999999940395,image176,image26
12,1,7,A,retrieval,NA,NA,NA,NA,image103,NA,image103,TRUE,4565.29999999702,image103,image26
12,1,7,A,retrieval,NA,NA,NA,NA,image65,NA,image65,TRUE,2037.7000000029802,image65,image26
12,1,7,A,retrieval,NA,NA,NA,NA,image188,NA,image176,FALSE,3827.2000000029802,image188,image26
12,1,8,A,memory-resp,#FFFFFF,#13adc9,image26,image340,NA,left,NULL,FALSE,NA,image340,image26
12,1,8,A,memory-resp,#FFFFFF,#91c229,image26,image384,NA,right,NULL,FALSE,NA,image384,image384
12,1,8,A,memory-resp,#FFFFFF,#533286,image26,image59,NA,left,NULL,FALSE,NA,image59,image26
12,1,8,A,memory-resp,#FFFFFF,#7f2f35,image26,image328,NA,right,NULL,FALSE,NA,image328,image328
12,1,8,A,retrieval,NA,NA,NA,NA,image340,NA,image340,TRUE,4648.20000000298,image340,image26
12,1,8,A,retrieval,NA,NA,NA,NA,image59,NA,image59,TRUE,1667.2000000029802,image59,image26
12,1,8,A,retrieval,NA,NA,NA,NA,image384,NA,image384,TRUE,1362.2999999970198,image384,image26
12,1,8,A,retrieval,NA,NA,NA,NA,image328,NA,image328,TRUE,7019,image328,image26
12,1,9,A,memory-resp,#17ba45,#FFFFFF,image362,image26,NA,right,NULL,FALSE,NA,image362,image26
12,1,9,A,memory-resp,#FFFFFF,#a29d57,image26,image301,NA,right,NULL,FALSE,NA,image301,image301
12,1,9,A,memory-resp,#102489,#FFFFFF,image269,image26,NA,left,NULL,FALSE,NA,image269,image269
12,1,9,A,memory-resp,#ab4fa2,#FFFFFF,image40,image26,NA,left,NULL,FALSE,NA,image40,image40
12,1,9,A,retrieval,NA,NA,NA,NA,image269,NA,image269,TRUE,6001.100000008941,image269,image26
12,1,9,A,retrieval,NA,NA,NA,NA,image301,NA,image362,FALSE,5754.699999988079,image301,image26
12,1,9,A,retrieval,NA,NA,NA,NA,image40,NA,image40,TRUE,1514.7000000029802,image40,image26
12,1,9,A,retrieval,NA,NA,NA,NA,image362,NA,image301,FALSE,4555.5999999940395,image362,image26
12,1,10,A,memory-resp,#FFFFFF,#459650,image26,image359,NA,right,NULL,FALSE,NA,image359,image359
12,1,10,A,memory-resp,#b68d1b,#FFFFFF,image149,image26,NA,right,NULL,FALSE,NA,image149,image26
12,1,10,A,memory-resp,#7e2567,#FFFFFF,image339,image26,NA,right,NULL,FALSE,NA,image339,image26
12,1,10,A,memory-resp,#174a92,#FFFFFF,image431,image26,NA,right,NULL,FALSE,NA,image431,image26
12,1,10,A,retrieval,NA,NA,NA,NA,image359,NA,image359,TRUE,2025.5,image359,image359
12,1,10,A,retrieval,NA,NA,NA,NA,image149,NA,image339,FALSE,6428.600000008941,image149,image359
12,1,10,A,retrieval,NA,NA,NA,NA,image431,NA,image431,TRUE,1677.5999999940395,image431,image359
12,1,10,A,retrieval,NA,NA,NA,NA,image339,NA,image339,TRUE,1356.199999988079,image339,image359
12,1,11,A,memory-resp,#4fa01c,#FFFFFF,image62,image26,NA,right,NULL,FALSE,NA,image62,image26
12,1,11,A,memory-resp,#FFFFFF,#872a22,image26,image76,NA,left,NULL,FALSE,NA,image76,image26
12,1,11,A,memory-resp,#FFFFFF,#681c7d,image26,image429,NA,right,NULL,FALSE,NA,image429,image429
12,1,11,A,memory-resp,#FFFFFF,#18afaf,image26,image358,NA,right,NULL,FALSE,NA,image358,image358
12,1,11,A,retrieval,NA,NA,NA,NA,image76,NA,image429,FALSE,2181.7000000029802,image76,image26
12,1,11,A,retrieval,NA,NA,NA,NA,image429,NA,image76,FALSE,4413.399999991059,image429,image26
12,1,11,A,retrieval,NA,NA,NA,NA,image62,NA,image62,TRUE,1984.5999999940395,image62,image26
12,1,11,A,retrieval,NA,NA,NA,NA,image358,NA,image358,TRUE,849.1000000089407,image358,image26
12,1,12,A,memory-resp,#783880,#FFFFFF,image145,image26,NA,right,NULL,FALSE,NA,image145,image26
12,1,12,A,memory-resp,#325ea9,#FFFFFF,image385,image26,NA,left,NULL,FALSE,NA,image385,image385
12,1,12,A,memory-resp,#845f43,#FFFFFF,image253,image26,NA,left,NULL,FALSE,NA,image253,image253
12,1,12,A,memory-resp,#19a420,#FFFFFF,image409,image26,NA,right,NULL,FALSE,NA,image409,image26
12,1,12,A,retrieval,NA,NA,NA,NA,image385,NA,image385,TRUE,2336.2999999970198,image385,image26
12,1,12,A,retrieval,NA,NA,NA,NA,image253,NA,image253,TRUE,6235.399999991059,image253,image26
12,1,12,A,retrieval,NA,NA,NA,NA,image409,NA,image409,TRUE,1911,image409,image26
12,1,12,A,retrieval,NA,NA,NA,NA,image145,NA,image145,TRUE,939.7999999970198,image145,image26
12,1,13,A,memory-resp,#9fc431,#FFFFFF,image229,image26,NA,right,NULL,FALSE,NA,image229,image26
12,1,13,A,memory-resp,#bb3544,#FFFFFF,image216,image26,NA,left,NULL,FALSE,NA,image216,image216
12,1,13,A,memory-resp,#440f99,#FFFFFF,image377,image26,NA,right,NULL,FALSE,NA,image377,image26
12,1,13,A,memory-resp,#FFFFFF,#1acbb9,image26,image90,NA,right,NULL,FALSE,NA,image90,image90
12,1,13,A,retrieval,NA,NA,NA,NA,image90,NA,image90,TRUE,1089.0999999940395,image90,image26
12,1,13,A,retrieval,NA,NA,NA,NA,image377,NA,image377,TRUE,2068.7000000029802,image377,image26
12,1,13,A,retrieval,NA,NA,NA,NA,image216,NA,image216,TRUE,5422.70000000298,image216,image26
12,1,13,A,retrieval,NA,NA,NA,NA,image229,NA,image229,TRUE,513.0999999940395,image229,image26
12,1,14,A,memory-resp,#337568,#FFFFFF,image230,image26,NA,left,NULL,FALSE,NA,image230,image230
12,1,14,A,memory-resp,#FFFFFF,#7d1edc,image26,image109,NA,left,NULL,FALSE,NA,image109,image26
12,1,14,A,memory-resp,#FFFFFF,#c31f13,image26,image279,NA,right,NULL,FALSE,NA,image279,image279
12,1,14,A,memory-resp,#FFFFFF,#618523,image26,image357,NA,left,NULL,FALSE,NA,image357,image26
12,1,14,A,retrieval,NA,NA,NA,NA,image279,NA,image279,TRUE,3777.7000000029802,image279,image230
12,1,14,A,retrieval,NA,NA,NA,NA,image109,NA,image109,TRUE,2671.699999988079,image109,image230
12,1,14,A,retrieval,NA,NA,NA,NA,image230,NA,image357,FALSE,5238.5,image230,image230
12,1,14,A,retrieval,NA,NA,NA,NA,image357,NA,image230,FALSE,1419.0999999940395,image357,image230
12,1,15,A,memory-resp,#FFFFFF,#5a8514,image26,image201,NA,right,NULL,FALSE,NA,image201,image201
12,1,15,A,memory-resp,#2a6a6f,#FFFFFF,image285,image26,NA,left,NULL,FALSE,NA,image285,image285
12,1,15,A,memory-resp,#b61411,#FFFFFF,image379,image26,NA,right,NULL,FALSE,NA,image379,image26
12,1,15,A,memory-resp,#4f1ec2,#FFFFFF,image58,image26,NA,right,NULL,FALSE,NA,image58,image26
12,1,15,A,retrieval,NA,NA,NA,NA,image201,NA,image201,TRUE,4067.1000000089407,image201,image201
12,1,15,A,retrieval,NA,NA,NA,NA,image379,NA,image379,TRUE,2789.9000000059605,image379,image201
12,1,15,A,retrieval,NA,NA,NA,NA,image285,NA,image285,TRUE,1618,image285,image201
12,1,15,A,retrieval,NA,NA,NA,NA,image58,NA,NULL,FALSE,NA,image58,image201
12,2,P1,D,processing,#FFFFFF,#d80e36,image65,image78,NA,right,right,TRUE,1036.4000000059605,NA,NA
12,2,P1,D,processing,#92c219,#FFFFFF,image245,image32,NA,right,right,TRUE,1602.2000000029802,NA,NA
12,2,P1,D,processing,#2c8168,#FFFFFF,image321,image148,NA,left,left,TRUE,1562.2000000029802,NA,NA
12,2,P1,D,processing,#FFFFFF,#3b3564,image243,image147,NA,left,right,FALSE,1674.4000000059605,NA,NA
12,2,P2,D,processing,#bbad16,#FFFFFF,image24,image103,NA,right,right,TRUE,1279.8999999910593,NA,NA
12,2,P2,D,processing,#753853,#FFFFFF,image216,image49,NA,left,left,TRUE,1363.2000000029802,NA,NA
12,2,P2,D,processing,#18cd55,#FFFFFF,image195,image96,NA,left,left,TRUE,1146.2999999970198,NA,NA
12,2,P2,D,processing,#3e1ecc,#FFFFFF,image21,image168,NA,left,right,FALSE,1391.199999988079,NA,NA
12,2,P3,D,processing,#76158e,#FFFFFF,image256,image152,NA,right,right,TRUE,1374.7000000029802,NA,NA
12,2,P3,D,processing,#3283b8,#FFFFFF,image99,image393,NA,right,right,TRUE,1438.9000000059605,NA,NA
12,2,P3,D,processing,#914922,#FFFFFF,image287,image347,NA,right,right,TRUE,1372.7999999970198,NA,NA
12,2,P3,D,processing,#FFFFFF,#70a456,image72,image83,NA,right,right,TRUE,1110.7999999970198,NA,NA
12,2,P4,D,processing,#FFFFFF,#362bab,image213,image240,NA,right,right,TRUE,1138.5999999940395,NA,NA
12,2,P4,D,processing,#FFFFFF,#9ec32c,image211,image420,NA,right,right,TRUE,1151.2000000029802,NA,NA
12,2,P4,D,processing,#FFFFFF,#17d992,image426,image399,NA,left,left,TRUE,1489,NA,NA
12,2,P4,D,processing,#FFFFFF,#e41162,image402,image66,NA,right,right,TRUE,2127.7999999970198,NA,NA
12,2,P5,D,processing,#FFFFFF,#352a9d,image176,image317,NA,left,left,TRUE,1445.9000000059605,NA,NA
12,2,P5,D,processing,#6b2e49,#FFFFFF,image98,image79,NA,right,right,TRUE,1426,NA,NA
12,2,P5,D,processing,#15c697,#FFFFFF,image132,image384,NA,right,right,TRUE,1218.5,NA,NA
12,2,P5,D,processing,#FFFFFF,#99954d,image212,image181,NA,right,right,TRUE,1275.7000000029802,NA,NA
12,2,P6,D,processing,#FFFFFF,#3a22d3,image276,image53,NA,left,left,TRUE,1745,NA,NA
12,2,P6,D,processing,#40a585,#FFFFFF,image177,image160,NA,left,left,TRUE,2130.5,NA,NA
12,2,P6,D,processing,#818948,#FFFFFF,image244,image260,NA,right,right,TRUE,1011,NA,NA
12,2,P6,D,processing,#871d2c,#FFFFFF,image16,image340,NA,left,right,FALSE,1108.7000000029802,NA,NA
12,2,P7,D,processing,#388519,#FFFFFF,image273,image356,NA,left,left,TRUE,942.0999999940395,NA,NA
12,2,P7,D,processing,#8a46b4,#FFFFFF,image326,image225,NA,right,right,TRUE,1402.8999999910593,NA,NA
12,2,P7,D,processing,#c7341a,#FFFFFF,image276,image408,NA,left,left,TRUE,1025.2999999970198,NA,NA
12,2,P7,D,processing,#3e75a3,#FFFFFF,image135,image254,NA,right,left,FALSE,1353.699999988079,NA,NA
12,2,P8,D,processing,#FFFFFF,#208d32,image426,image365,NA,left,left,TRUE,1577.4000000059605,NA,NA
12,2,P8,D,processing,#FFFFFF,#ae1e96,image34,image212,NA,left,left,TRUE,1492.3999999910593,NA,NA
12,2,P8,D,processing,#0e8dc8,#FFFFFF,image104,image189,NA,right,right,TRUE,1454.7999999970198,NA,NA
12,2,P8,D,processing,#b68c43,#FFFFFF,image260,image116,NA,left,left,TRUE,1049,NA,NA
12,2,P9,D,processing,#FFFFFF,#a1b80f,image197,image427,NA,left,left,TRUE,1006.1000000089407,NA,NA
12,2,P9,D,processing,#FFFFFF,#0ea44a,image239,image91,NA,right,right,TRUE,1289.7000000029802,NA,NA
12,2,P9,D,processing,#ac0c4c,#FFFFFF,image35,image106,NA,left,left,TRUE,947.7999999970198,NA,NA
12,2,P9,D,processing,#454682,#FFFFFF,image247,image132,NA,left,left,TRUE,1037.4000000059605,NA,NA
12,2,P10,D,processing,#8b1833,#FFFFFF,image107,image158,NA,left,left,TRUE,1041.4000000059605,NA,NA
12,2,P10,D,processing,#FFFFFF,#4d2083,image166,image247,NA,right,right,TRUE,1538.2999999970198,NA,NA
12,2,P10,D,processing,#2a98a2,#FFFFFF,image35,image253,NA,left,left,TRUE,794.6999999880791,NA,NA
12,2,P10,D,processing,#FFFFFF,#5d7826,image393,image295,NA,left,left,TRUE,1501.8999999910593,NA,NA
12,2,P11,D,processing,#FFFFFF,#577628,image391,image72,NA,left,left,TRUE,1339.5999999940395,NA,NA
12,2,P11,D,processing,#FFFFFF,#47118d,image194,image164,NA,left,left,TRUE,1475.2000000029802,NA,NA
12,2,P11,D,processing,#FFFFFF,#934c3e,image7,image332,NA,right,right,TRUE,1488.2000000029802,NA,NA
12,2,P11,D,processing,#FFFFFF,#23b3a2,image255,image68,NA,right,left,FALSE,801,NA,NA
12,2,P12,D,processing,#cc2453,#FFFFFF,image429,image205,NA,right,right,TRUE,1242.2999999970198,NA,NA
12,2,P12,D,processing,#FFFFFF,#43a894,image167,image174,NA,right,right,TRUE,1060.0999999940395,NA,NA
12,2,P12,D,processing,#3f20a7,#FFFFFF,image12,image351,NA,right,right,TRUE,1899,NA,NA
12,2,P12,D,processing,#FFFFFF,#86c71f,image223,image116,NA,left,left,TRUE,993.5,NA,NA
12,2,P13,D,processing,#FFFFFF,#9b4b75,image139,image232,NA,right,right,TRUE,1667.7000000029802,NA,NA
12,2,P13,D,processing,#FFFFFF,#3d36a1,image234,image197,NA,right,right,TRUE,1790.2999999970198,NA,NA
12,2,P13,D,processing,#FFFFFF,#2dae69,image290,image82,NA,right,right,TRUE,1465.2999999970198,NA,NA
12,2,P13,D,processing,#FFFFFF,#827826,image327,image400,NA,right,right,TRUE,1243.9000000059605,NA,NA
12,2,P14,D,processing,#FFFFFF,#359429,image3,image347,NA,right,right,TRUE,1080.4000000059605,NA,NA
12,2,P14,D,processing,#FFFFFF,#a11ecc,image72,image159,NA,right,right,TRUE,1116.699999988079,NA,NA
12,2,P14,D,processing,#309db5,#FFFFFF,image250,image284,NA,right,left,FALSE,963.8999999910593,NA,NA
12,2,P14,D,processing,#7b4837,#FFFFFF,image421,image31,NA,right,right,TRUE,1430.7000000029802,NA,NA
12,2,P15,D,processing,#9436bf,#FFFFFF,image355,image154,NA,left,left,TRUE,1152.8999999910593,NA,NA
12,2,P15,D,processing,#FFFFFF,#508395,image297,image230,NA,right,right,TRUE,1098,NA,NA
12,2,P15,D,processing,#639c54,#FFFFFF,image305,image153,NA,right,right,TRUE,1027.2999999970198,NA,NA
12,2,P15,D,processing,#FFFFFF,#76453d,image266,image16,NA,right,right,TRUE,1103.7999999970198,NA,NA
12,2,P16,D,processing,#FFFFFF,#169284,image309,image424,NA,right,right,TRUE,1130.800000011921,NA,NA
12,2,P16,D,processing,#461985,#FFFFFF,image181,image118,NA,left,left,TRUE,879,NA,NA
12,2,P16,D,processing,#FFFFFF,#6e7b2d,image64,image426,NA,left,left,TRUE,1254.9000000059605,NA,NA
12,2,P16,D,processing,#FFFFFF,#8c3b40,image137,image59,NA,left,left,TRUE,1161.1000000089407,NA,NA
12,2,P17,D,processing,#a6a44e,#FFFFFF,image169,image333,NA,left,left,TRUE,977.1000000089407,NA,NA
12,2,P17,D,processing,#FFFFFF,#d70f9b,image370,image98,NA,left,left,TRUE,2224.199999988079,NA,NA
12,2,P17,D,processing,#FFFFFF,#315cc9,image323,image66,NA,right,right,TRUE,940.0999999940395,NA,NA
12,2,P17,D,processing,#13aa3e,#FFFFFF,image391,image54,NA,left,left,TRUE,819.4000000059605,NA,NA
12,2,P18,D,processing,#c10b87,#FFFFFF,image228,image53,NA,left,left,TRUE,2283.7999999970198,NA,NA
12,2,P18,D,processing,#FFFFFF,#138b13,image181,image204,NA,left,left,TRUE,1639.7999999970198,NA,NA
12,2,P18,D,processing,#FFFFFF,#1e408a,image288,image324,NA,left,left,TRUE,2402,NA,NA
12,2,P18,D,processing,#bf7f3b,#FFFFFF,image232,image180,NA,left,left,TRUE,1270.0999999940395,NA,NA
12,2,P19,D,processing,#14c271,#FFFFFF,image420,image255,NA,left,left,TRUE,964,NA,NA
12,2,P19,D,processing,#829537,#FFFFFF,image60,image353,NA,left,left,TRUE,1146.0999999940395,NA,NA
12,2,P19,D,processing,#FFFFFF,#2414d7,image409,image399,NA,left,left,TRUE,1943.5,NA,NA
12,2,P19,D,processing,#FFFFFF,#8b3748,image115,image130,NA,right,right,TRUE,1282.7999999970198,NA,NA
12,2,P20,D,processing,#FFFFFF,#ada743,image158,image424,NA,right,right,TRUE,1152.1000000089407,NA,NA
12,2,P20,D,processing,#FFFFFF,#a32981,image7,image252,NA,right,right,TRUE,1309.2000000029802,NA,NA
12,2,P20,D,processing,#1342cd,#FFFFFF,image118,image64,NA,right,right,TRUE,1503.7000000029802,NA,NA
12,2,P20,D,processing,#3b9b53,#FFFFFF,image42,image200,NA,left,left,TRUE,993.4000000059605,NA,NA
12,2,P21,D,processing,#FFFFFF,#9e551a,image399,image151,NA,right,right,TRUE,1236.0999999940395,NA,NA
12,2,P21,D,processing,#FFFFFF,#1c55b0,image194,image192,NA,left,left,TRUE,1564,NA,NA
12,2,P21,D,processing,#FFFFFF,#30ab47,image177,image81,NA,left,left,TRUE,2271.0999999940395,NA,NA
12,2,P21,D,processing,#FFFFFF,#da1bc7,image109,image35,NA,right,right,TRUE,1069.7999999970198,NA,NA
12,2,P22,D,processing,#974e49,#FFFFFF,image247,image349,NA,left,left,TRUE,1293.7000000029802,NA,NA
12,2,P22,D,processing,#FFFFFF,#482178,image90,image59,NA,left,left,TRUE,1182.4000000059605,NA,NA
12,2,P22,D,processing,#82a031,#FFFFFF,image248,image353,NA,left,left,TRUE,1121.5,NA,NA
12,2,P22,D,processing,#328677,#FFFFFF,image192,image197,NA,right,right,TRUE,862.8000000119209,NA,NA
12,2,P23,D,processing,#59891a,#FFFFFF,image194,image2,NA,left,left,TRUE,889.3999999910593,NA,NA
12,2,P23,D,processing,#FFFFFF,#7b0bc1,image201,image81,NA,left,left,TRUE,1450,NA,NA
12,2,P23,D,processing,#23bfc7,#FFFFFF,image61,image286,NA,right,right,TRUE,1774.8999999910593,NA,NA
12,2,P23,D,processing,#FFFFFF,#74252a,image64,image132,NA,left,left,TRUE,1014,NA,NA
12,2,P24,D,processing,#49ac39,#FFFFFF,image7,image79,NA,right,right,TRUE,1610.0999999940395,NA,NA
12,2,P24,D,processing,#c35718,#FFFFFF,image53,image214,NA,right,right,TRUE,1022.2999999970198,NA,NA
12,2,P24,D,processing,#FFFFFF,#2a8db2,image82,image199,NA,left,left,TRUE,841.2999999970198,NA,NA
12,2,P24,D,processing,#6f2aac,#FFFFFF,image402,image215,NA,right,right,TRUE,1383.2999999970198,NA,NA
12,2,P25,D,processing,#FFFFFF,#0e1990,image59,image304,NA,right,right,TRUE,1069.2000000029802,NA,NA
12,2,P25,D,processing,#FFFFFF,#27964c,image166,image189,NA,right,right,TRUE,1164.5,NA,NA
12,2,P25,D,processing,#FFFFFF,#b5a630,image22,image197,NA,right,right,TRUE,838.2999999970198,NA,NA
12,2,P25,D,processing,#FFFFFF,#a82e6f,image248,image244,NA,left,left,TRUE,1308.4000000059605,NA,NA
12,2,1,D,memory-resp,#FFFFFF,#0c448d,image136,image182,NA,right,right,TRUE,2205.699999988079,image182,image182
12,2,1,D,memory-resp,#FFFFFF,#7a531f,image55,image34,NA,right,right,TRUE,1710.199999988079,image34,image34
12,2,1,D,memory-resp,#8c2285,#FFFFFF,image200,image215,NA,right,right,TRUE,1608.5999999940395,image200,image215
12,2,1,D,memory-resp,#FFFFFF,#529861,image193,image329,NA,left,left,TRUE,1782,image329,image193
12,2,1,D,retrieval,NA,NA,NA,NA,image34,NA,image215,FALSE,7737.600000008941,image34,image182
12,2,1,D,retrieval,NA,NA,NA,NA,image182,NA,image34,FALSE,1469.7999999970198,image182,image182
12,2,1,D,retrieval,NA,NA,NA,NA,image200,NA,image200,TRUE,2328.2999999970198,image200,image182
12,2,1,D,retrieval,NA,NA,NA,NA,image329,NA,image182,FALSE,858.6000000089407,image329,image182
12,2,2,D,memory-resp,#FFFFFF,#d99217,image56,image20,NA,left,left,TRUE,2488.2000000029802,image20,image56
12,2,2,D,memory-resp,#104094,#FFFFFF,image177,image34,NA,right,right,TRUE,1756,image177,image34
12,2,2,D,memory-resp,#FFFFFF,#2dbf1d,image57,image345,NA,right,right,TRUE,1663.9000000059605,image345,image345
12,2,2,D,memory-resp,#a12fa7,#FFFFFF,image247,image360,NA,left,left,TRUE,1254.5999999940395,image247,image247
12,2,2,D,retrieval,NA,NA,NA,NA,image247,NA,image247,TRUE,2294.800000011921,image247,image56
12,2,2,D,retrieval,NA,NA,NA,NA,image20,NA,image345,FALSE,7963.29999999702,image20,image56
12,2,2,D,retrieval,NA,NA,NA,NA,image177,NA,image34,FALSE,1450.2000000029802,image177,image56
12,2,2,D,retrieval,NA,NA,NA,NA,image345,NA,image20,FALSE,1420.8999999910593,image345,image56
12,2,3,D,memory-resp,#FFFFFF,#467c27,image118,image228,NA,right,NULL,FALSE,NA,image228,image228
12,2,3,D,memory-resp,#FFFFFF,#4d0e95,image331,image288,NA,right,right,TRUE,2217.7000000029802,image288,image288
12,2,3,D,memory-resp,#FFFFFF,#8a2d1e,image107,image143,NA,left,left,TRUE,2101.800000011921,image143,image107
12,2,3,D,memory-resp,#FFFFFF,#146f90,image133,image108,NA,left,NULL,FALSE,NA,image108,image133
12,2,3,D,retrieval,NA,NA,NA,NA,image288,NA,image108,FALSE,1193.7000000029802,image288,image228
12,2,3,D,retrieval,NA,NA,NA,NA,image228,NA,image288,FALSE,2939.2000000029802,image228,image228
12,2,3,D,retrieval,NA,NA,NA,NA,image143,NA,image228,FALSE,2263,image143,image228
12,2,3,D,retrieval,NA,NA,NA,NA,image108,NA,image133,FALSE,1247.7999999970198,image108,image228
12,2,4,D,memory-resp,#FFFFFF,#683768,image232,image62,NA,left,left,TRUE,1243.7000000029802,image62,image232
12,2,4,D,memory-resp,#FFFFFF,#a97e47,image57,image124,NA,right,right,TRUE,1533.2999999970198,image124,image124
12,2,4,D,memory-resp,#3f9240,#FFFFFF,image200,image60,NA,right,right,TRUE,1467.4000000059605,image200,image60
12,2,4,D,memory-resp,#FFFFFF,#1a5289,image418,image182,NA,right,right,TRUE,1662.7999999970198,image182,image182
12,2,4,D,retrieval,NA,NA,NA,NA,image62,NA,image200,FALSE,6058.9000000059605,image62,image232
12,2,4,D,retrieval,NA,NA,NA,NA,image124,NA,image124,TRUE,1278.0999999940395,image124,image232
12,2,4,D,retrieval,NA,NA,NA,NA,image200,NA,image182,FALSE,2497.199999988079,image200,image232
12,2,4,D,retrieval,NA,NA,NA,NA,image182,NA,image182,TRUE,5620.5,image182,image232
12,2,5,D,memory-resp,#FFFFFF,#630fa3,image190,image181,NA,right,right,TRUE,1777.4000000059605,image181,image181
12,2,5,D,memory-resp,#FFFFFF,#bb303c,image303,image133,NA,right,NULL,FALSE,NA,image133,image133
12,2,5,D,memory-resp,#54c10b,#FFFFFF,image331,image334,NA,right,left,FALSE,1868.1000000089407,image331,image334
12,2,5,D,memory-resp,#0db2c5,#FFFFFF,image213,image91,NA,right,right,TRUE,1162.2999999970198,image213,image91
12,2,5,D,retrieval,NA,NA,NA,NA,image181,NA,image303,FALSE,3010.8999999910593,image181,image181
12,2,5,D,retrieval,NA,NA,NA,NA,image133,NA,image331,FALSE,3656.7999999970198,image133,image181
12,2,5,D,retrieval,NA,NA,NA,NA,image331,NA,image133,FALSE,1230.3999999910593,image331,image181
12,2,5,D,retrieval,NA,NA,NA,NA,image213,NA,image334,FALSE,3494.2000000029802,image213,image181
12,2,6,D,memory-resp,#0e139a,#FFFFFF,image104,image103,NA,right,right,TRUE,2022.8999999910593,image104,image103
12,2,6,D,memory-resp,#23be56,#FFFFFF,image214,image125,NA,left,left,TRUE,2260.0999999940395,image214,image214
12,2,6,D,memory-resp,#9c1653,#FFFFFF,image176,image185,NA,left,left,TRUE,2050.6000000089407,image176,image176
12,2,6,D,memory-resp,#929b3b,#FFFFFF,image346,image202,NA,left,left,TRUE,2101,image346,image346
12,2,6,D,retrieval,NA,NA,NA,NA,image346,NA,image346,TRUE,1650.5999999940395,image346,image103
12,2,6,D,retrieval,NA,NA,NA,NA,image104,NA,image214,FALSE,8432.60000000894,image104,image103
12,2,6,D,retrieval,NA,NA,NA,NA,image214,NA,image176,FALSE,2663.2000000029802,image214,image103
12,2,6,D,retrieval,NA,NA,NA,NA,image176,NA,image202,FALSE,943.0999999940395,image176,image103
12,2,7,D,memory-resp,#FFFFFF,#6229a8,image187,image206,NA,left,left,TRUE,2158.1000000089407,image206,image187
12,2,7,D,memory-resp,#2c7c81,#FFFFFF,image384,image302,NA,left,left,TRUE,1515.2999999970198,image384,image384
12,2,7,D,memory-resp,#a03c37,#FFFFFF,image342,image136,NA,left,left,TRUE,1253.7000000029802,image342,image342
12,2,7,D,memory-resp,#FFFFFF,#658b46,image332,image178,NA,right,right,TRUE,1860.1000000089407,image178,image178
12,2,7,D,retrieval,NA,NA,NA,NA,image206,NA,image384,FALSE,6466.5,image206,image187
12,2,7,D,retrieval,NA,NA,NA,NA,image384,NA,image342,FALSE,8431.40000000596,image384,image187
12,2,7,D,retrieval,NA,NA,NA,NA,image178,NA,image384,FALSE,5880.699999988079,image178,image187
12,2,7,D,retrieval,NA,NA,NA,NA,image342,NA,image342,TRUE,5216.70000000298,image342,image187
12,2,8,D,memory-resp,#6a8b27,#FFFFFF,image415,image73,NA,left,NULL,FALSE,NA,image415,image415
12,2,8,D,memory-resp,#FFFFFF,#972032,image269,image318,NA,left,left,TRUE,1712.7000000029802,image318,image269
12,2,8,D,memory-resp,#7a27d3,#FFFFFF,image328,image16,NA,right,right,TRUE,2117.4000000059605,image328,image16
12,2,8,D,memory-resp,#FFFFFF,#18957a,image274,image8,NA,right,right,TRUE,2448.5,image8,image8
12,2,8,D,retrieval,NA,NA,NA,NA,image8,NA,image8,TRUE,1295.5,image8,image415
12,2,8,D,retrieval,NA,NA,NA,NA,image318,NA,NULL,FALSE,NA,image318,image415
12,2,8,D,retrieval,NA,NA,NA,NA,image415,NA,image415,TRUE,4937.9000000059605,image415,image415
12,2,8,D,retrieval,NA,NA,NA,NA,image328,NA,image234,FALSE,2623.7000000029802,image328,image415
12,2,9,D,memory-resp,#FFFFFF,#148f7a,image290,image146,NA,right,right,TRUE,1721.3999999910593,image146,image146
12,2,9,D,memory-resp,#8dab3b,#FFFFFF,image156,image16,NA,right,right,TRUE,1390.2000000029802,image156,image16
12,2,9,D,memory-resp,#952d3e,#FFFFFF,image399,image177,NA,right,NULL,FALSE,NA,image399,image177
12,2,9,D,memory-resp,#5b2fa7,#FFFFFF,image89,image299,NA,right,right,TRUE,1650.5,image89,image299
12,2,9,D,retrieval,NA,NA,NA,NA,image146,NA,image299,FALSE,6581.9000000059605,image146,image146
12,2,9,D,retrieval,NA,NA,NA,NA,image156,NA,image156,TRUE,1051.7000000029802,image156,image146
12,2,9,D,retrieval,NA,NA,NA,NA,image399,NA,image399,TRUE,1434.5999999940395,image399,image146
12,2,9,D,retrieval,NA,NA,NA,NA,image89,NA,image177,FALSE,1235.3999999910593,image89,image146
12,2,10,D,memory-resp,#FFFFFF,#7e21ca,image413,image378,NA,left,left,TRUE,2071,image378,image413
12,2,10,D,memory-resp,#83312f,#FFFFFF,image52,image252,NA,left,left,TRUE,1329.7000000029802,image52,image52
12,2,10,D,memory-resp,#11668d,#FFFFFF,image90,image20,NA,left,left,TRUE,1942.9000000059605,image90,image90
12,2,10,D,memory-resp,#FFFFFF,#308910,image144,image142,NA,left,left,TRUE,2300.6000000089407,image142,image144
12,2,10,D,retrieval,NA,NA,NA,NA,image142,NA,image142,TRUE,1601.300000011921,image142,image413
12,2,10,D,retrieval,NA,NA,NA,NA,image378,NA,image90,FALSE,4782.9000000059605,image378,image413
12,2,10,D,retrieval,NA,NA,NA,NA,image52,NA,image52,TRUE,2521,image52,image413
12,2,10,D,retrieval,NA,NA,NA,NA,image90,NA,image142,FALSE,5823.29999999702,image90,image413
12,2,11,D,memory-resp,#FFFFFF,#37be7d,image252,image280,NA,right,right,TRUE,2045.2000000029802,image280,image280
12,2,11,D,memory-resp,#a52c60,#FFFFFF,image266,image9,NA,right,NULL,FALSE,NA,image266,image9
12,2,11,D,memory-resp,#3d3b8c,#FFFFFF,image79,image30,NA,left,left,TRUE,1249,image79,image79
12,2,11,D,memory-resp,#8e8039,#FFFFFF,image52,image373,NA,left,left,TRUE,1283.7999999970198,image52,image52
12,2,11,D,retrieval,NA,NA,NA,NA,image52,NA,image52,TRUE,1985,image52,image280
12,2,11,D,retrieval,NA,NA,NA,NA,image79,NA,image252,FALSE,3813.6000000089407,image79,image280
12,2,11,D,retrieval,NA,NA,NA,NA,image280,NA,image30,FALSE,4729.5,image280,image280
12,2,11,D,retrieval,NA,NA,NA,NA,image266,NA,image280,FALSE,971,image266,image280
12,2,12,D,memory-resp,#424e80,#FFFFFF,image301,image333,NA,left,left,TRUE,1556.0999999940395,image301,image301
12,2,12,D,memory-resp,#9e8915,#FFFFFF,image361,image324,NA,left,left,TRUE,2087.9000000059605,image361,image361
12,2,12,D,memory-resp,#FFFFFF,#1f933a,image369,image161,NA,left,NULL,FALSE,NA,image161,image369
12,2,12,D,memory-resp,#FFFFFF,#c922c9,image16,image426,NA,left,left,TRUE,1809.0999999940395,image426,image16
12,2,12,D,retrieval,NA,NA,NA,NA,image161,NA,image301,FALSE,6972.4000000059605,image161,image301
12,2,12,D,retrieval,NA,NA,NA,NA,image426,NA,image333,FALSE,2475.7999999970198,image426,image301
12,2,12,D,retrieval,NA,NA,NA,NA,image301,NA,image361,FALSE,1233.8999999910593,image301,image301
12,2,12,D,retrieval,NA,NA,NA,NA,image361,NA,image361,TRUE,1647.5999999940395,image361,image301
12,2,13,D,memory-resp,#FFFFFF,#8731c4,image428,image35,NA,right,right,TRUE,1471.9000000059605,image35,image35
12,2,13,D,memory-resp,#39de1b,#FFFFFF,image16,image415,NA,left,left,TRUE,1524.5,image16,image16
12,2,13,D,memory-resp,#FFFFFF,#b55f3b,image385,image14,NA,left,NULL,FALSE,NA,image14,image385
12,2,13,D,memory-resp,#FFFFFF,#3e9aa3,image301,image377,NA,left,left,TRUE,1343.0999999940395,image377,image301
12,2,13,D,retrieval,NA,NA,NA,NA,image14,NA,image14,TRUE,2259,image14,image35
12,2,13,D,retrieval,NA,NA,NA,NA,image16,NA,image385,FALSE,2292.7000000029802,image16,image35
12,2,13,D,retrieval,NA,NA,NA,NA,image377,NA,image377,TRUE,1045.7999999970198,image377,image35
12,2,13,D,retrieval,NA,NA,NA,NA,image35,NA,image301,FALSE,2055.8999999910593,image35,image35
12,2,14,D,memory-resp,#0e66a4,#FFFFFF,image142,image152,NA,right,right,TRUE,1420.7000000029802,image142,image152
12,2,14,D,memory-resp,#FFFFFF,#53b724,image169,image332,NA,left,left,TRUE,1379.8999999910593,image332,image169
12,2,14,D,memory-resp,#FFFFFF,#961cab,image420,image19,NA,left,left,TRUE,1544,image19,image420
12,2,14,D,memory-resp,#FFFFFF,#75493e,image313,image301,NA,right,right,TRUE,1562.0999999940395,image301,image301
12,2,14,D,retrieval,NA,NA,NA,NA,image301,NA,image301,TRUE,1517.5999999940395,image301,image152
12,2,14,D,retrieval,NA,NA,NA,NA,image19,NA,image332,FALSE,5642.9000000059605,image19,image152
12,2,14,D,retrieval,NA,NA,NA,NA,image332,NA,image420,FALSE,2923.8999999910593,image332,image152
12,2,14,D,retrieval,NA,NA,NA,NA,image142,NA,image142,TRUE,5717.199999988079,image142,image152
12,2,15,D,memory-resp,#ac8215,#FFFFFF,image40,image83,NA,left,left,TRUE,2442.9000000059605,image40,image40
12,2,15,D,memory-resp,#bc20bc,#FFFFFF,image240,image7,NA,left,left,TRUE,1431.7000000029802,image240,image240
12,2,15,D,memory-resp,#46a45e,#FFFFFF,image393,image156,NA,left,left,TRUE,1024.2999999970198,image393,image393
12,2,15,D,memory-resp,#4c6dae,#FFFFFF,image66,image192,NA,left,left,TRUE,1097.2000000029802,image66,image66
12,2,15,D,retrieval,NA,NA,NA,NA,image40,NA,image40,TRUE,6819.300000011921,image40,image40
12,2,15,D,retrieval,NA,NA,NA,NA,image66,NA,image66,TRUE,1487.7000000029802,image66,image40
12,2,15,D,retrieval,NA,NA,NA,NA,image240,NA,image393,FALSE,3023.9000000059605,image240,image40
12,2,15,D,retrieval,NA,NA,NA,NA,image393,NA,image240,FALSE,1161.7999999970198,image393,image40
12,3,P1,C,processing,#891f5f,#FFFFFF,image101,image26,NA,left,left,TRUE,805,NA,NA
12,3,P1,C,processing,#FFFFFF,#8c9631,image26,image402,NA,left,left,TRUE,2401,NA,NA
12,3,P1,C,processing,#FFFFFF,#0b2ab7,image26,image8,NA,right,right,TRUE,1299.2000000029802,NA,NA
12,3,P1,C,processing,#2ba66b,#FFFFFF,image19,image26,NA,right,right,TRUE,2042.2999999970198,NA,NA
12,3,P2,C,processing,#603295,#FFFFFF,image256,image26,NA,right,right,TRUE,1296.1000000089407,NA,NA
12,3,P2,C,processing,#FFFFFF,#84a24e,image26,image253,NA,right,right,TRUE,1236.5,NA,NA
12,3,P2,C,processing,#FFFFFF,#2c7771,image26,image6,NA,left,left,TRUE,1248.4000000059605,NA,NA
12,3,P2,C,processing,#b81e54,#FFFFFF,image329,image26,NA,right,right,TRUE,1181.4000000059605,NA,NA
12,3,P3,C,processing,#FFFFFF,#674aa1,image26,image179,NA,left,left,TRUE,1386.5999999940395,NA,NA
12,3,P3,C,processing,#8b9f3c,#FFFFFF,image19,image26,NA,right,right,TRUE,1042.2000000029802,NA,NA
12,3,P3,C,processing,#FFFFFF,#87122d,image26,image318,NA,left,left,TRUE,930.2000000029802,NA,NA
12,3,P3,C,processing,#FFFFFF,#1bac94,image26,image96,NA,left,left,TRUE,1101.4000000059605,NA,NA
12,3,P4,C,processing,#413a92,#FFFFFF,image398,image26,NA,left,left,TRUE,957,NA,NA
12,3,P4,C,processing,#FFFFFF,#a02c5a,image26,image83,NA,right,right,TRUE,813.3000000119209,NA,NA
12,3,P4,C,processing,#099a39,#FFFFFF,image212,image26,NA,left,right,FALSE,1314.4000000059605,NA,NA
12,3,P4,C,processing,#FFFFFF,#90a80b,image26,image337,NA,left,left,TRUE,1372.800000011921,NA,NA
12,3,P5,C,processing,#3d9699,#FFFFFF,image158,image26,NA,right,right,TRUE,1421.6000000089407,NA,NA
12,3,P5,C,processing,#FFFFFF,#63a739,image26,image180,NA,left,left,TRUE,977.9000000059605,NA,NA
12,3,P5,C,processing,#af4f3c,#FFFFFF,image6,image26,NA,right,right,TRUE,1214.8999999910593,NA,NA
12,3,P5,C,processing,#FFFFFF,#6e15c1,image26,image82,NA,right,right,TRUE,1199,NA,NA
12,3,P6,C,processing,#FFFFFF,#5e458c,image26,image129,NA,left,left,TRUE,1375.7999999970198,NA,NA
12,3,P6,C,processing,#396d74,#FFFFFF,image253,image26,NA,left,left,TRUE,1194.5,NA,NA
12,3,P6,C,processing,#FFFFFF,#8bbb1b,image26,image218,NA,left,left,TRUE,2058.7000000029802,NA,NA
12,3,P6,C,processing,#7a3024,#FFFFFF,image377,image26,NA,right,right,TRUE,1229.5,NA,NA
12,3,P7,C,processing,#FFFFFF,#a37e4d,image26,image139,NA,left,left,TRUE,1518.199999988079,NA,NA
12,3,P7,C,processing,#FFFFFF,#3d88bd,image26,image297,NA,left,left,TRUE,1238.5999999940395,NA,NA
12,3,P7,C,processing,#FFFFFF,#bc1aa4,image26,image118,NA,left,left,TRUE,1258.7999999970198,NA,NA
12,3,P7,C,processing,#3e8442,#FFFFFF,image161,image26,NA,right,right,TRUE,1792.2000000029802,NA,NA
12,3,P8,C,processing,#516737,#FFFFFF,image146,image26,NA,left,left,TRUE,1317.4000000059605,NA,NA
12,3,P8,C,processing,#7f251f,#FFFFFF,image54,image26,NA,right,right,TRUE,1321.4000000059605,NA,NA
12,3,P8,C,processing,#31b9b7,#FFFFFF,image143,image26,NA,right,right,TRUE,1362.6000000089407,NA,NA
12,3,P8,C,processing,#6716da,#FFFFFF,image298,image26,NA,right,right,TRUE,1458.9000000059605,NA,NA
12,3,P9,C,processing,#b33da7,#FFFFFF,image255,image26,NA,right,right,TRUE,1214.4000000059605,NA,NA
12,3,P9,C,processing,#FFFFFF,#2eb22a,image26,image3,NA,left,left,TRUE,1085.4000000059605,NA,NA
12,3,P9,C,processing,#FFFFFF,#926126,image26,image229,NA,left,left,TRUE,2128.7000000029802,NA,NA
12,3,P9,C,processing,#FFFFFF,#2c60ba,image26,image297,NA,left,left,TRUE,1120.2000000029802,NA,NA
12,3,P10,C,processing,#FFFFFF,#933c2f,image26,image285,NA,right,right,TRUE,1110.5999999940395,NA,NA
12,3,P10,C,processing,#FFFFFF,#4d1f89,image26,image208,NA,left,left,TRUE,1188.7000000029802,NA,NA
12,3,P10,C,processing,#496a2f,#FFFFFF,image309,image26,NA,right,right,TRUE,1089.7999999970198,NA,NA
12,3,P10,C,processing,#41958a,#FFFFFF,image333,image26,NA,right,right,TRUE,1263.199999988079,NA,NA
12,3,P11,C,processing,#0dc5be,#FFFFFF,image212,image26,NA,left,right,FALSE,1190,NA,NA
12,3,P11,C,processing,#FFFFFF,#739130,image26,image259,NA,left,left,TRUE,1582.7000000029802,NA,NA
12,3,P11,C,processing,#FFFFFF,#3e19ae,image26,image337,NA,left,left,TRUE,1126.5,NA,NA
12,3,P11,C,processing,#FFFFFF,#8b132b,image26,image414,NA,right,right,TRUE,1835.9000000059605,NA,NA
12,3,P12,C,processing,#FFFFFF,#9620b6,image26,image150,NA,left,left,TRUE,967.8000000119209,NA,NA
12,3,P12,C,processing,#FFFFFF,#9b2e2c,image26,image398,NA,right,right,TRUE,1012.5999999940395,NA,NA
12,3,P12,C,processing,#FFFFFF,#3f829d,image26,image106,NA,left,left,TRUE,1039.7999999970198,NA,NA
12,3,P12,C,processing,#5dc20f,#FFFFFF,image161,image26,NA,right,right,TRUE,884.8999999910593,NA,NA
12,3,P13,C,processing,#FFFFFF,#0fc72e,image26,image101,NA,right,right,TRUE,1491,NA,NA
12,3,P13,C,processing,#895b3e,#FFFFFF,image325,image26,NA,left,right,FALSE,1216.5999999940395,NA,NA
12,3,P13,C,processing,#ce18d8,#FFFFFF,image161,image26,NA,right,right,TRUE,1130.5,NA,NA
12,3,P13,C,processing,#FFFFFF,#0c599d,image26,image54,NA,left,left,TRUE,1335.5999999940395,NA,NA
12,3,P14,C,processing,#FFFFFF,#16ac32,image26,image192,NA,left,left,TRUE,1976.6000000089407,NA,NA
12,3,P14,C,processing,#825027,#FFFFFF,image204,image26,NA,left,left,TRUE,1803.0999999940395,NA,NA
12,3,P14,C,processing,#FFFFFF,#801972,image26,image256,NA,left,left,TRUE,968.8999999910593,NA,NA
12,3,P14,C,processing,#FFFFFF,#173a92,image26,image99,NA,left,left,TRUE,1352.2000000029802,NA,NA
12,3,P15,C,processing,#FFFFFF,#34bcaa,image26,image25,NA,left,left,TRUE,1223.2999999970198,NA,NA
12,3,P15,C,processing,#FFFFFF,#c41239,image26,image192,NA,left,left,TRUE,915.2999999970198,NA,NA
12,3,P15,C,processing,#75be23,#FFFFFF,image414,image26,NA,left,left,TRUE,972.8999999910593,NA,NA
12,3,P15,C,processing,#FFFFFF,#57378b,image26,image106,NA,left,left,TRUE,874.1000000089407,NA,NA
12,3,P16,C,processing,#c41c68,#FFFFFF,image106,image26,NA,right,right,TRUE,1326.2999999970198,NA,NA
12,3,P16,C,processing,#FFFFFF,#2cba8f,image26,image146,NA,right,right,TRUE,1341.7000000029802,NA,NA
12,3,P16,C,processing,#FFFFFF,#8faa18,image26,image259,NA,left,left,TRUE,1162,NA,NA
12,3,P16,C,processing,#FFFFFF,#494096,image26,image204,NA,right,right,TRUE,1055,NA,NA
12,3,P17,C,processing,#4b44ab,#FFFFFF,image98,image26,NA,right,right,TRUE,1360.5,NA,NA
12,3,P17,C,processing,#82813a,#FFFFFF,image192,image26,NA,right,right,TRUE,1479.5,NA,NA
12,3,P17,C,processing,#ae4768,#FFFFFF,image83,image26,NA,left,left,TRUE,880.4000000059605,NA,NA
12,3,P17,C,processing,#109463,#FFFFFF,image150,image26,NA,right,right,TRUE,1111.5,NA,NA
12,3,P18,C,processing,#FFFFFF,#3c6a77,image26,image298,NA,left,left,TRUE,1253.7000000029802,NA,NA
12,3,P18,C,processing,#FFFFFF,#910d8d,image26,image8,NA,right,right,TRUE,1051.0999999940395,NA,NA
12,3,P18,C,processing,#FFFFFF,#ba5017,image26,image83,NA,right,right,TRUE,1189.7999999970198,NA,NA
12,3,P18,C,processing,#FFFFFF,#1ec01b,image26,image106,NA,left,left,TRUE,1076.699999988079,NA,NA
12,3,P19,C,processing,#7f139a,#FFFFFF,image159,image26,NA,left,left,TRUE,883.6000000089407,NA,NA
12,3,P19,C,processing,#FFFFFF,#17a112,image26,image272,NA,left,left,TRUE,1442.0999999940395,NA,NA
12,3,P19,C,processing,#FFFFFF,#147aa9,image26,image99,NA,left,left,TRUE,1242.8999999910593,NA,NA
12,3,P19,C,processing,#FFFFFF,#cf6120,image26,image191,NA,left,left,TRUE,2099.8999999910593,NA,NA
12,3,P20,C,processing,#FFFFFF,#af23d1,image26,image192,NA,left,left,TRUE,1178.5999999940395,NA,NA
12,3,P20,C,processing,#FFFFFF,#477685,image26,image106,NA,left,left,TRUE,1469.7000000029802,NA,NA
12,3,P20,C,processing,#629136,#FFFFFF,image349,image26,NA,right,right,TRUE,1350.2000000029802,NA,NA
12,3,P20,C,processing,#96342c,#FFFFFF,image329,image26,NA,right,right,TRUE,1179.7999999970198,NA,NA
12,3,P21,C,processing,#FFFFFF,#61ac16,image26,image329,NA,left,left,TRUE,941.7000000029802,NA,NA
12,3,P21,C,processing,#FFFFFF,#15c19c,image26,image375,NA,left,left,TRUE,1227.3999999910593,NA,NA
12,3,P21,C,processing,#953242,#FFFFFF,image108,image26,NA,right,right,TRUE,1101.0999999940395,NA,NA
12,3,P21,C,processing,#6143ad,#FFFFFF,image154,image26,NA,right,right,TRUE,1480.2999999970198,NA,NA
12,3,P22,C,processing,#34802d,#FFFFFF,image297,image26,NA,right,right,TRUE,1141.199999988079,NA,NA
12,3,P22,C,processing,#d48921,#FFFFFF,image272,image26,NA,right,right,TRUE,1138.2999999970198,NA,NA
12,3,P22,C,processing,#FFFFFF,#28618a,image26,image143,NA,left,left,TRUE,1432.1000000089407,NA,NA
12,3,P22,C,processing,#693a73,#FFFFFF,image259,image26,NA,right,right,TRUE,1243.0999999940395,NA,NA
12,3,P23,C,processing,#30959c,#FFFFFF,image250,image26,NA,left,right,FALSE,1481.5999999940395,NA,NA
12,3,P23,C,processing,#FFFFFF,#a1da10,image26,image143,NA,left,left,TRUE,953,NA,NA
12,3,P23,C,processing,#a14556,#FFFFFF,image349,image26,NA,right,right,TRUE,1048.9000000059605,NA,NA
12,3,P23,C,processing,#FFFFFF,#6e1fbd,image26,image3,NA,left,left,TRUE,1143.4000000059605,NA,NA
12,3,P24,C,processing,#FFFFFF,#5f549c,image26,image146,NA,right,right,TRUE,1003,NA,NA
12,3,P24,C,processing,#FFFFFF,#93ac39,image26,image204,NA,right,right,TRUE,1381.8999999910593,NA,NA
12,3,P24,C,processing,#FFFFFF,#9c4061,image26,image379,NA,left,left,TRUE,1193.2000000029802,NA,NA
12,3,P24,C,processing,#FFFFFF,#249e96,image26,image398,NA,right,right,TRUE,811.7000000029802,NA,NA
12,3,P25,C,processing,#FFFFFF,#437830,image26,image229,NA,left,left,TRUE,1755.7999999970198,NA,NA
12,3,P25,C,processing,#FFFFFF,#943c96,image26,image211,NA,left,left,TRUE,1299.7000000029802,NA,NA
12,3,P25,C,processing,#FFFFFF,#299eb3,image26,image255,NA,left,left,TRUE,1052.7000000029802,NA,NA
12,3,P25,C,processing,#c43912,#FFFFFF,image297,image26,NA,right,right,TRUE,1253,NA,NA
12,3,1,C,memory-resp,#FFFFFF,#95540f,image26,image30,NA,left,left,TRUE,1301.6000000089407,image30,image26
12,3,1,C,memory-resp,#FFFFFF,#4fcb10,image26,image211,NA,left,left,TRUE,1094.5,image211,image26
12,3,1,C,memory-resp,#FFFFFF,#1a79bc,image26,image212,NA,right,left,FALSE,1090,image212,image212
12,3,1,C,memory-resp,#a042a9,#FFFFFF,image164,image26,NA,right,right,TRUE,1026.0999999940395,image164,image26
12,3,1,C,retrieval,NA,NA,NA,NA,image164,NA,image164,TRUE,2608.4000000059605,image164,image26
12,3,1,C,retrieval,NA,NA,NA,NA,image30,NA,image212,FALSE,5531.29999999702,image30,image26
12,3,1,C,retrieval,NA,NA,NA,NA,image212,NA,image212,TRUE,2462.300000011921,image212,image26
12,3,1,C,retrieval,NA,NA,NA,NA,image211,NA,image164,FALSE,2292.5,image211,image26
12,3,2,C,memory-resp,#62c733,#FFFFFF,image302,image26,NA,right,right,TRUE,1191,image302,image26
12,3,2,C,memory-resp,#FFFFFF,#47778a,image26,image329,NA,left,left,TRUE,1022.8999999910593,image329,image26
12,3,2,C,memory-resp,#FFFFFF,#774483,image26,image159,NA,right,right,TRUE,1579.2999999970198,image159,image159
12,3,2,C,memory-resp,#c7541f,#FFFFFF,image30,image26,NA,right,right,TRUE,1612.4000000059605,image30,image26
12,3,2,C,retrieval,NA,NA,NA,NA,image302,NA,image159,FALSE,2632.5999999940395,image302,image26
12,3,2,C,retrieval,NA,NA,NA,NA,image30,NA,image30,TRUE,1831,image30,image26
12,3,2,C,retrieval,NA,NA,NA,NA,image329,NA,image302,FALSE,1758.2999999970198,image329,image26
12,3,2,C,retrieval,NA,NA,NA,NA,image159,NA,image329,FALSE,2300.4000000059605,image159,image26
12,3,3,C,memory-resp,#711c9b,#FFFFFF,image398,image26,NA,left,left,TRUE,1272.7999999970198,image398,image398
12,3,3,C,memory-resp,#af351d,#FFFFFF,image256,image26,NA,right,right,TRUE,1155.0999999940395,image256,image26
12,3,3,C,memory-resp,#FFFFFF,#5fa93d,image26,image3,NA,left,left,TRUE,1406,image3,image26
12,3,3,C,memory-resp,#FFFFFF,#4b90a0,image26,image337,NA,left,left,TRUE,2077.3999999910593,image337,image26
12,3,3,C,retrieval,NA,NA,NA,NA,image3,NA,image256,FALSE,6133.70000000298,image3,image398
12,3,3,C,retrieval,NA,NA,NA,NA,image398,NA,image398,TRUE,1004.7999999970198,image398,image398
12,3,3,C,retrieval,NA,NA,NA,NA,image337,NA,image3,FALSE,1919.9000000059605,image337,image398
12,3,3,C,retrieval,NA,NA,NA,NA,image256,NA,image250,FALSE,3520.9000000059605,image256,image398
12,3,4,C,memory-resp,#FFFFFF,#263797,image26,image99,NA,left,left,TRUE,1251.7999999970198,image99,image26
12,3,4,C,memory-resp,#349d7a,#FFFFFF,image108,image26,NA,right,right,TRUE,1222.300000011921,image108,image26
12,3,4,C,memory-resp,#FFFFFF,#be237d,image26,image329,NA,left,left,TRUE,1252.5999999940395,image329,image26
12,3,4,C,memory-resp,#90990f,#FFFFFF,image212,image26,NA,left,right,FALSE,1590.0999999940395,image212,image212
12,3,4,C,retrieval,NA,NA,NA,NA,image108,NA,image99,FALSE,2859.5,image108,image26
12,3,4,C,retrieval,NA,NA,NA,NA,image212,NA,image212,TRUE,1292.9000000059605,image212,image26
12,3,4,C,retrieval,NA,NA,NA,NA,image99,NA,image398,FALSE,1686.2000000029802,image99,image26
12,3,4,C,retrieval,NA,NA,NA,NA,image329,NA,image239,FALSE,5745.9000000059605,image329,image26
12,3,5,C,memory-resp,#774e22,#FFFFFF,image30,image26,NA,right,right,TRUE,973.9000000059605,image30,image26
12,3,5,C,memory-resp,#FFFFFF,#a245a5,image26,image211,NA,left,left,TRUE,1123.3999999910593,image211,image26
12,3,5,C,memory-resp,#32a441,#FFFFFF,image192,image26,NA,right,right,TRUE,1137.9000000059605,image192,image26
12,3,5,C,memory-resp,#FFFFFF,#279ad3,image26,image272,NA,left,left,TRUE,1086.5999999940395,image272,image26
12,3,5,C,retrieval,NA,NA,NA,NA,image30,NA,image30,TRUE,4563.70000000298,image30,image26
12,3,5,C,retrieval,NA,NA,NA,NA,image211,NA,NULL,FALSE,NA,image211,image26
12,3,5,C,retrieval,NA,NA,NA,NA,image192,NA,image192,TRUE,1168.6000000089407,image192,image26
12,3,5,C,retrieval,NA,NA,NA,NA,image272,NA,image272,TRUE,1059.4000000059605,image272,image26
12,3,6,C,memory-resp,#FFFFFF,#b42d77,image26,image272,NA,left,left,TRUE,1271.5999999940395,image272,image26
12,3,6,C,memory-resp,#FFFFFF,#b1af1b,image26,image156,NA,left,left,TRUE,1398,image156,image26
12,3,6,C,memory-resp,#4940b0,#FFFFFF,image256,image26,NA,right,right,TRUE,1447.9000000059605,image256,image26
12,3,6,C,memory-resp,#366d60,#FFFFFF,image302,image26,NA,right,right,TRUE,1179.4000000059605,image302,image26
12,3,6,C,retrieval,NA,NA,NA,NA,image156,NA,image272,FALSE,4825.5,image156,image26
12,3,6,C,retrieval,NA,NA,NA,NA,image256,NA,image302,FALSE,1868.2000000029802,image256,image26
12,3,6,C,retrieval,NA,NA,NA,NA,image272,NA,image256,FALSE,1810,image272,image26
12,3,6,C,retrieval,NA,NA,NA,NA,image302,NA,image156,FALSE,5359.29999999702,image302,image26
12,3,7,C,memory-resp,#3c7c9a,#FFFFFF,image259,image26,NA,right,right,TRUE,2483.5,image259,image26
12,3,7,C,memory-resp,#33b00c,#FFFFFF,image18,image26,NA,right,right,TRUE,1264.699999988079,image18,image26
12,3,7,C,memory-resp,#FFFFFF,#871891,image26,image204,NA,right,right,TRUE,1151.3999999910593,image204,image204
12,3,7,C,memory-resp,#FFFFFF,#b15a2b,image26,image402,NA,left,left,TRUE,1293.7999999970198,image402,image26
12,3,7,C,retrieval,NA,NA,NA,NA,image402,NA,image402,TRUE,1749.2000000029802,image402,image26
12,3,7,C,retrieval,NA,NA,NA,NA,image259,NA,image204,FALSE,2217.5,image259,image26
12,3,7,C,retrieval,NA,NA,NA,NA,image18,NA,image259,FALSE,2686.7000000029802,image18,image26
12,3,7,C,retrieval,NA,NA,NA,NA,image204,NA,image18,FALSE,2621.5,image204,image26
12,3,8,C,memory-resp,#FFFFFF,#248aa3,image26,image164,NA,left,left,TRUE,1218,image164,image26
12,3,8,C,memory-resp,#a82e10,#FFFFFF,image3,image26,NA,right,right,TRUE,1255,image3,image26
12,3,8,C,memory-resp,#317728,#FFFFFF,image297,image26,NA,right,right,TRUE,1126.7000000029802,image297,image26
12,3,8,C,memory-resp,#a72fbc,#FFFFFF,image272,image26,NA,right,right,TRUE,1203.7000000029802,image272,image26
12,3,8,C,retrieval,NA,NA,NA,NA,image272,NA,image272,TRUE,1506.5999999940395,image272,image26
12,3,8,C,retrieval,NA,NA,NA,NA,image3,NA,image3,TRUE,1291.2000000029802,image3,image26
12,3,8,C,retrieval,NA,NA,NA,NA,image164,NA,image164,TRUE,2775.7000000029802,image164,image26
12,3,8,C,retrieval,NA,NA,NA,NA,image297,NA,image159,FALSE,4789.70000000298,image297,image26
12,3,9,C,memory-resp,#FFFFFF,#9d2d0b,image26,image146,NA,right,right,TRUE,1844.8999999910593,image146,image146
12,3,9,C,memory-resp,#FFFFFF,#782b7d,image26,image150,NA,left,left,TRUE,1251.2999999970198,image150,image26
12,3,9,C,memory-resp,#FFFFFF,#378f32,image26,image30,NA,left,left,TRUE,1660.5,image30,image26
12,3,9,C,memory-resp,#2888af,#FFFFFF,image325,image26,NA,left,right,FALSE,1381.800000011921,image325,image325
12,3,9,C,retrieval,NA,NA,NA,NA,image146,NA,image150,FALSE,2299.0999999940395,image146,image146
12,3,9,C,retrieval,NA,NA,NA,NA,image30,NA,image30,TRUE,2331,image30,image146
12,3,9,C,retrieval,NA,NA,NA,NA,image325,NA,image146,FALSE,1912,image325,image146
12,3,9,C,retrieval,NA,NA,NA,NA,image150,NA,image197,FALSE,2783.7000000029802,image150,image146
12,3,10,C,memory-resp,#FFFFFF,#d22d14,image26,image101,NA,right,right,TRUE,1676.2000000029802,image101,image101
12,3,10,C,memory-resp,#2d80a4,#FFFFFF,image325,image26,NA,left,right,FALSE,1463.7000000029802,image325,image325
12,3,10,C,memory-resp,#5c954b,#FFFFFF,image192,image26,NA,right,right,TRUE,1379.5,image192,image26
12,3,10,C,memory-resp,#5f2772,#FFFFFF,image401,image26,NA,right,right,TRUE,1292.3999999910593,image401,image26
12,3,10,C,retrieval,NA,NA,NA,NA,image101,NA,image101,TRUE,6800.5,image101,image101
12,3,10,C,retrieval,NA,NA,NA,NA,image192,NA,image401,FALSE,1289.9000000059605,image192,image101
12,3,10,C,retrieval,NA,NA,NA,NA,image325,NA,image401,FALSE,2559.2000000029802,image325,image101
12,3,10,C,retrieval,NA,NA,NA,NA,image401,NA,image101,FALSE,5241.899999991059,image401,image101
12,3,11,C,memory-resp,#6f873b,#FFFFFF,image256,image26,NA,right,NULL,FALSE,NA,image256,image26
12,3,11,C,memory-resp,#FFFFFF,#2e20ac,image26,image211,NA,left,left,TRUE,1147,image211,image26
12,3,11,C,memory-resp,#128c63,#FFFFFF,image204,image26,NA,left,left,TRUE,1336.1000000089407,image204,image204
12,3,11,C,memory-resp,#FFFFFF,#864665,image26,image8,NA,right,left,FALSE,946.1999999880791,image8,image8
12,3,11,C,retrieval,NA,NA,NA,NA,image204,NA,image204,TRUE,2432.9000000059605,image204,image26
12,3,11,C,retrieval,NA,NA,NA,NA,image8,NA,image211,FALSE,3097.5,image8,image26
12,3,11,C,retrieval,NA,NA,NA,NA,image256,NA,image204,FALSE,4020,image256,image26
12,3,11,C,retrieval,NA,NA,NA,NA,image211,NA,image256,FALSE,2609.1000000089407,image211,image26
12,3,12,C,memory-resp,#bb533e,#FFFFFF,image259,image26,NA,right,right,TRUE,1628.5,image259,image26
12,3,12,C,memory-resp,#7722a5,#FFFFFF,image19,image26,NA,right,right,TRUE,1287.2999999970198,image19,image26
12,3,12,C,memory-resp,#749f56,#FFFFFF,image118,image26,NA,right,right,TRUE,1318.0999999940395,image118,image26
12,3,12,C,memory-resp,#FFFFFF,#3d8185,image26,image96,NA,left,left,TRUE,1209.9000000059605,image96,image26
12,3,12,C,retrieval,NA,NA,NA,NA,image118,NA,image96,FALSE,6627.70000000298,image118,image26
12,3,12,C,retrieval,NA,NA,NA,NA,image259,NA,image40,FALSE,3105.4000000059605,image259,image26
12,3,12,C,retrieval,NA,NA,NA,NA,image19,NA,image228,FALSE,3534.2000000029802,image19,image26
12,3,12,C,retrieval,NA,NA,NA,NA,image96,NA,image259,FALSE,1082.2999999970198,image96,image26
12,3,13,C,memory-resp,#FFFFFF,#ca1c41,image26,image139,NA,left,left,TRUE,1377.7000000029802,image139,image26
12,3,13,C,memory-resp,#afc92c,#FFFFFF,image256,image26,NA,right,right,TRUE,1446.5999999940395,image256,image26
12,3,13,C,memory-resp,#FFFFFF,#3e27d3,image26,image166,NA,left,left,TRUE,1814.6000000089407,image166,image26
12,3,13,C,memory-resp,#FFFFFF,#18a085,image26,image98,NA,left,NULL,FALSE,NA,image98,image26
12,3,13,C,retrieval,NA,NA,NA,NA,image166,NA,image247,FALSE,6823,image166,image26
12,3,13,C,retrieval,NA,NA,NA,NA,image139,NA,image347,FALSE,4063,image139,image26
12,3,13,C,retrieval,NA,NA,NA,NA,image256,NA,image139,FALSE,1316,image256,image26
12,3,13,C,retrieval,NA,NA,NA,NA,image98,NA,image166,FALSE,2092.0999999940395,image98,image26
12,3,14,C,memory-resp,#FFFFFF,#841915,image26,image218,NA,left,left,TRUE,1349.699999988079,image218,image26
12,3,14,C,memory-resp,#FFFFFF,#376977,image26,image146,NA,right,left,FALSE,970.7000000029802,image146,image146
12,3,14,C,memory-resp,#7b26c9,#FFFFFF,image143,image26,NA,right,right,TRUE,1056.3999999910593,image143,image26
12,3,14,C,memory-resp,#FFFFFF,#518f1e,image26,image259,NA,left,left,TRUE,1066.9000000059605,image259,image26
12,3,14,C,retrieval,NA,NA,NA,NA,image146,NA,image143,FALSE,3479,image146,image26
12,3,14,C,retrieval,NA,NA,NA,NA,image218,NA,image146,FALSE,3065.4000000059605,image218,image26
12,3,14,C,retrieval,NA,NA,NA,NA,image143,NA,image259,FALSE,1162.5,image143,image26
12,3,14,C,retrieval,NA,NA,NA,NA,image259,NA,image410,FALSE,1943.1000000089407,image259,image26
12,3,15,C,memory-resp,#FFFFFF,#9a0e79,image26,image422,NA,right,left,FALSE,1204.9000000059605,image422,image422
12,3,15,C,memory-resp,#FFFFFF,#b5a145,image26,image96,NA,left,left,TRUE,1108.5,image96,image26
12,3,15,C,memory-resp,#FFFFFF,#375aa4,image26,image402,NA,left,left,TRUE,790.0999999940395,image402,image26
12,3,15,C,memory-resp,#FFFFFF,#18dc5a,image26,image323,NA,left,left,TRUE,1062.2000000029802,image323,image26
12,3,15,C,retrieval,NA,NA,NA,NA,image96,NA,image402,FALSE,8143.5999999940395,image96,image422
12,3,15,C,retrieval,NA,NA,NA,NA,image422,NA,image323,FALSE,3588.9000000059605,image422,image422
12,3,15,C,retrieval,NA,NA,NA,NA,image323,NA,image142,FALSE,1140.5,image323,image422
12,3,15,C,retrieval,NA,NA,NA,NA,image402,NA,image142,FALSE,1377.5999999940395,image402,image422
12,4,P1,B,processing,#8e1025,#FFFFFF,image417,image26,NA,right,right,TRUE,789.3000000119209,NA,NA
12,4,P1,B,processing,#FFFFFF,#1fada4,image26,image371,NA,left,left,TRUE,640.3999999910593,NA,NA
12,4,P1,B,processing,#57458c,#FFFFFF,image151,image26,NA,right,right,TRUE,1198.5999999940395,NA,NA
12,4,P1,B,processing,#7bbb0c,#FFFFFF,image427,image26,NA,right,right,TRUE,713,NA,NA
12,4,P2,B,processing,#0d967d,#FFFFFF,image284,image26,NA,right,right,TRUE,1217.5999999940395,NA,NA
12,4,P2,B,processing,#c01b29,#FFFFFF,image415,image26,NA,right,right,TRUE,653.5999999940395,NA,NA
12,4,P2,B,processing,#FFFFFF,#48199a,image26,image140,NA,left,left,TRUE,986.9000000059605,NA,NA
12,4,P2,B,processing,#FFFFFF,#9fc039,image26,image79,NA,left,left,TRUE,754.7999999970198,NA,NA
12,4,P3,B,processing,#FFFFFF,#28a46e,image26,image396,NA,left,left,TRUE,670,NA,NA
12,4,P3,B,processing,#b00c5e,#FFFFFF,image377,image26,NA,right,right,TRUE,541.0999999940395,NA,NA
12,4,P3,B,processing,#b5b941,#FFFFFF,image14,image26,NA,right,right,TRUE,735,NA,NA
12,4,P3,B,processing,#FFFFFF,#443cb4,image26,image54,NA,left,left,TRUE,549.4000000059605,NA,NA
12,4,P4,B,processing,#122ac4,#FFFFFF,image204,image26,NA,right,right,TRUE,679.7000000029802,NA,NA
12,4,P4,B,processing,#FFFFFF,#97447d,image26,image79,NA,left,left,TRUE,552.7999999970198,NA,NA
12,4,P4,B,processing,#2ca03f,#FFFFFF,image141,image26,NA,right,right,TRUE,494.79999999701977,NA,NA
12,4,P4,B,processing,#9e972e,#FFFFFF,image376,image26,NA,right,right,TRUE,887.8999999910593,NA,NA
12,4,P5,B,processing,#FFFFFF,#97724e,image26,image228,NA,left,left,TRUE,719,NA,NA
12,4,P5,B,processing,#FFFFFF,#752972,image26,image18,NA,left,left,TRUE,841.7999999970198,NA,NA
12,4,P5,B,processing,#17cf39,#FFFFFF,image229,image26,NA,right,right,TRUE,483.3999999910593,NA,NA
12,4,P5,B,processing,#3473b7,#FFFFFF,image102,image26,NA,right,right,TRUE,824.7000000029802,NA,NA
12,4,P6,B,processing,#FFFFFF,#73933e,image26,image79,NA,left,left,TRUE,653.4000000059605,NA,NA
12,4,P6,B,processing,#26ba8e,#FFFFFF,image149,image26,NA,right,right,TRUE,685.7999999970198,NA,NA
12,4,P6,B,processing,#773144,#FFFFFF,image31,image26,NA,right,right,TRUE,768,NA,NA
12,4,P6,B,processing,#530fd2,#FFFFFF,image337,image26,NA,right,right,TRUE,790.4000000059605,NA,NA
12,4,P7,B,processing,#FFFFFF,#22b9ad,image26,image187,NA,left,left,TRUE,609.2000000029802,NA,NA
12,4,P7,B,processing,#497d1c,#FFFFFF,image250,image26,NA,right,right,TRUE,530.4000000059605,NA,NA
12,4,P7,B,processing,#6623a9,#FFFFFF,image404,image26,NA,right,right,TRUE,743.2999999970198,NA,NA
12,4,P7,B,processing,#772322,#FFFFFF,image368,image26,NA,right,right,TRUE,796.0999999940395,NA,NA
12,4,P8,B,processing,#FFFFFF,#3b57b5,image26,image312,NA,left,left,TRUE,609.7999999970198,NA,NA
12,4,P8,B,processing,#FFFFFF,#2c792a,image26,image422,NA,left,left,TRUE,703.3999999910593,NA,NA
12,4,P8,B,processing,#FFFFFF,#b78115,image26,image302,NA,left,left,TRUE,707,NA,NA
12,4,P8,B,processing,#a63682,#FFFFFF,image328,image26,NA,right,right,TRUE,571.6999999880791,NA,NA
12,4,P9,B,processing,#FFFFFF,#223f7c,image26,image225,NA,left,left,TRUE,675.0999999940395,NA,NA
12,4,P9,B,processing,#FFFFFF,#3a8d4a,image26,image417,NA,left,left,TRUE,753.9000000059605,NA,NA
12,4,P9,B,processing,#FFFFFF,#762876,image26,image197,NA,left,left,TRUE,773.1999999880791,NA,NA
12,4,P9,B,processing,#816946,#FFFFFF,image237,image26,NA,right,right,TRUE,649.2999999970198,NA,NA
12,4,P10,B,processing,#FFFFFF,#1319be,image26,image25,NA,left,left,TRUE,632.6000000089407,NA,NA
12,4,P10,B,processing,#b19443,#FFFFFF,image416,image26,NA,right,right,TRUE,740.3999999910593,NA,NA
12,4,P10,B,processing,#d91c77,#FFFFFF,image191,image26,NA,right,right,TRUE,755.2999999970198,NA,NA
12,4,P10,B,processing,#FFFFFF,#258d5e,image26,image153,NA,left,left,TRUE,1628.4000000059605,NA,NA
12,4,P11,B,processing,#9036ba,#FFFFFF,image151,image26,NA,right,right,TRUE,752.7000000029802,NA,NA
12,4,P11,B,processing,#FFFFFF,#a61e1c,image26,image327,NA,left,left,TRUE,626.8000000119209,NA,NA
12,4,P11,B,processing,#14cad7,#FFFFFF,image168,image26,NA,right,right,TRUE,520.2999999970198,NA,NA
12,4,P11,B,processing,#46ad1a,#FFFFFF,image262,image26,NA,right,right,TRUE,947.5,NA,NA
12,4,P12,B,processing,#FFFFFF,#2c749b,image26,image425,NA,left,left,TRUE,629.2000000029802,NA,NA
12,4,P12,B,processing,#FFFFFF,#8a3c33,image26,image13,NA,left,left,TRUE,830.7000000029802,NA,NA
12,4,P12,B,processing,#FFFFFF,#5bcf26,image26,image276,NA,left,left,TRUE,813.4000000059605,NA,NA
12,4,P12,B,processing,#FFFFFF,#9648a8,image26,image119,NA,left,left,TRUE,800.2999999970198,NA,NA
12,4,P13,B,processing,#841890,#FFFFFF,image429,image26,NA,right,right,TRUE,1411.5,NA,NA
12,4,P13,B,processing,#3f6578,#FFFFFF,image307,image26,NA,right,right,TRUE,687.5999999940395,NA,NA
12,4,P13,B,processing,#FFFFFF,#17b51a,image26,image118,NA,left,left,TRUE,800.6999999880791,NA,NA
12,4,P13,B,processing,#FFFFFF,#cb6a15,image26,image73,NA,left,left,TRUE,905.6999999880791,NA,NA
12,4,P14,B,processing,#FFFFFF,#31627c,image26,image146,NA,left,left,TRUE,596.5999999940395,NA,NA
12,4,P14,B,processing,#81377c,#FFFFFF,image6,image26,NA,right,right,TRUE,672.6999999880791,NA,NA
12,4,P14,B,processing,#4fa53b,#FFFFFF,image28,image26,NA,right,right,TRUE,838.7999999970198,NA,NA
12,4,P14,B,processing,#FFFFFF,#a75c39,image26,image60,NA,left,left,TRUE,590.0999999940395,NA,NA
12,4,P15,B,processing,#FFFFFF,#2f2296,image26,image145,NA,left,left,TRUE,823,NA,NA
12,4,P15,B,processing,#FFFFFF,#37908a,image26,image168,NA,left,left,TRUE,723.5999999940395,NA,NA
12,4,P15,B,processing,#FFFFFF,#8b1d30,image26,image362,NA,left,left,TRUE,839.9000000059605,NA,NA
12,4,P15,B,processing,#FFFFFF,#bcd011,image26,image3,NA,left,left,TRUE,776.5999999940395,NA,NA
12,4,P16,B,processing,#7329bc,#FFFFFF,image300,image26,NA,right,right,TRUE,632.9000000059605,NA,NA
12,4,P16,B,processing,#33a39f,#FFFFFF,image88,image26,NA,right,right,TRUE,745.7000000029802,NA,NA
12,4,P16,B,processing,#FFFFFF,#b2101a,image26,image16,NA,left,left,TRUE,537.5,NA,NA
12,4,P16,B,processing,#FFFFFF,#5a763d,image26,image415,NA,left,left,TRUE,866.2000000029802,NA,NA
12,4,P17,B,processing,#FFFFFF,#8d4a0c,image26,image415,NA,left,left,TRUE,794.2999999970198,NA,NA
12,4,P17,B,processing,#c814b0,#FFFFFF,image42,image26,NA,right,right,TRUE,613.4000000059605,NA,NA
12,4,P17,B,processing,#425c80,#FFFFFF,image405,image26,NA,right,right,TRUE,796.7999999970198,NA,NA
12,4,P17,B,processing,#318c37,#FFFFFF,image382,image26,NA,right,right,TRUE,782.4000000059605,NA,NA
12,4,P18,B,processing,#FFFFFF,#92456c,image26,image216,NA,left,left,TRUE,597,NA,NA
12,4,P18,B,processing,#FFFFFF,#233380,image26,image103,NA,left,left,TRUE,629.6000000089407,NA,NA
12,4,P18,B,processing,#2a7455,#FFFFFF,image419,image26,NA,right,right,TRUE,648.7999999970198,NA,NA
12,4,P18,B,processing,#c2ad0f,#FFFFFF,image408,image26,NA,right,right,TRUE,777.7999999970198,NA,NA
12,4,P19,B,processing,#93614d,#FFFFFF,image189,image26,NA,right,right,TRUE,1060.0999999940395,NA,NA
12,4,P19,B,processing,#712a92,#FFFFFF,image376,image26,NA,right,right,TRUE,788.9000000059605,NA,NA
12,4,P19,B,processing,#FFFFFF,#568a9f,image26,image362,NA,left,left,TRUE,1358.6000000089407,NA,NA
12,4,P19,B,processing,#FFFFFF,#609a42,image26,image250,NA,left,left,TRUE,812.1999999880791,NA,NA
12,4,P20,B,processing,#5d1d8c,#FFFFFF,image378,image26,NA,right,right,TRUE,900.2999999970198,NA,NA
12,4,P20,B,processing,#4d9f3c,#FFFFFF,image306,image26,NA,right,right,TRUE,709.2999999970198,NA,NA
12,4,P20,B,processing,#87311c,#FFFFFF,image279,image26,NA,right,right,TRUE,683.8999999910593,NA,NA
12,4,P20,B,processing,#46809b,#FFFFFF,image151,image26,NA,right,right,TRUE,643,NA,NA
12,4,P21,B,processing,#11bb71,#FFFFFF,image57,image26,NA,right,right,TRUE,815,NA,NA
12,4,P21,B,processing,#FFFFFF,#762330,image26,image25,NA,left,left,TRUE,639.5999999940395,NA,NA
12,4,P21,B,processing,#FFFFFF,#7ba00e,image26,image90,NA,left,left,TRUE,917.7999999970198,NA,NA
12,4,P21,B,processing,#FFFFFF,#352376,image26,image214,NA,left,left,TRUE,878.8999999910593,NA,NA
12,4,P22,B,processing,#FFFFFF,#8d7a49,image26,image345,NA,left,left,TRUE,654.7999999970198,NA,NA
12,4,P22,B,processing,#0f6cae,#FFFFFF,image173,image26,NA,right,right,TRUE,660.5,NA,NA
12,4,P22,B,processing,#11b037,#FFFFFF,image324,image26,NA,right,right,TRUE,731.8999999910593,NA,NA
12,4,P22,B,processing,#ab44ab,#FFFFFF,image369,image26,NA,right,right,TRUE,760.6000000089407,NA,NA
12,4,P23,B,processing,#0e9026,#FFFFFF,image353,image26,NA,right,right,TRUE,692.6999999880791,NA,NA
12,4,P23,B,processing,#FFFFFF,#a27a34,image26,image42,NA,left,left,TRUE,636.0999999940395,NA,NA
12,4,P23,B,processing,#FFFFFF,#0e78be,image26,image21,NA,left,left,TRUE,974.5999999940395,NA,NA
12,4,P23,B,processing,#b232c3,#FFFFFF,image346,image26,NA,right,right,TRUE,554.7000000029802,NA,NA
12,4,P24,B,processing,#FFFFFF,#663781,image26,image409,NA,left,left,TRUE,813.5,NA,NA
12,4,P24,B,processing,#FFFFFF,#659b3b,image26,image134,NA,left,left,TRUE,1332.7000000029802,NA,NA
12,4,P24,B,processing,#981b1d,#FFFFFF,image90,image26,NA,right,right,TRUE,568.9000000059605,NA,NA
12,4,P24,B,processing,#FFFFFF,#257979,image26,image8,NA,left,left,TRUE,595.0999999940395,NA,NA
12,4,P25,B,processing,#FFFFFF,#9a6147,image26,image254,NA,left,left,TRUE,782.9000000059605,NA,NA
12,4,P25,B,processing,#2c812f,#FFFFFF,image250,image26,NA,right,right,TRUE,513.9000000059605,NA,NA
12,4,P25,B,processing,#FFFFFF,#375277,image26,image313,NA,left,left,TRUE,508.3999999910593,NA,NA
12,4,P25,B,processing,#FFFFFF,#732281,image26,image416,NA,left,left,TRUE,940.8999999910593,NA,NA
12,4,1,B,memory-resp,#FFFFFF,#696f34,image26,image136,NA,left,NULL,FALSE,NA,image136,image26
12,4,1,B,memory-resp,#FFFFFF,#3b3d78,image26,image290,NA,left,NULL,FALSE,NA,image290,image26
12,4,1,B,memory-resp,#FFFFFF,#a21660,image26,image306,NA,left,NULL,FALSE,NA,image306,image26
12,4,1,B,memory-resp,#FFFFFF,#16b157,image26,image308,NA,left,NULL,FALSE,NA,image308,image26
12,4,1,B,retrieval,NA,NA,NA,NA,image306,NA,image306,TRUE,1985.2000000029802,image306,image26
12,4,1,B,retrieval,NA,NA,NA,NA,image308,NA,image308,TRUE,1501.7000000029802,image308,image26
12,4,1,B,retrieval,NA,NA,NA,NA,image290,NA,image363,FALSE,2779.7000000029802,image290,image26
12,4,1,B,retrieval,NA,NA,NA,NA,image136,NA,image136,TRUE,875.2000000029802,image136,image26
12,4,2,B,memory-resp,#3c4996,#FFFFFF,image9,image26,NA,right,right,TRUE,1039.5999999940395,image9,image26
12,4,2,B,memory-resp,#9d872f,#FFFFFF,image377,image26,NA,right,right,TRUE,1241.7000000029802,image377,image26
12,4,2,B,memory-resp,#85477a,#FFFFFF,image361,image26,NA,right,right,TRUE,938.1000000089407,image361,image26
12,4,2,B,memory-resp,#FFFFFF,#2fbc42,image26,image136,NA,left,left,TRUE,1354.300000011921,image136,image26
12,4,2,B,retrieval,NA,NA,NA,NA,image377,NA,image136,FALSE,2123.800000011921,image377,image26
12,4,2,B,retrieval,NA,NA,NA,NA,image9,NA,image377,FALSE,4733.399999991059,image9,image26
12,4,2,B,retrieval,NA,NA,NA,NA,image136,NA,image9,FALSE,948.7999999970198,image136,image26
12,4,2,B,retrieval,NA,NA,NA,NA,image361,NA,image361,TRUE,5430.5,image361,image26
12,4,3,B,memory-resp,#FFFFFF,#7f1d8c,image26,image214,NA,left,left,TRUE,881.3000000119209,image214,image26
12,4,3,B,memory-resp,#309a18,#FFFFFF,image77,image26,NA,right,right,TRUE,1327.7000000029802,image77,image26
12,4,3,B,memory-resp,#FFFFFF,#b56740,image26,image111,NA,left,left,TRUE,1379.2000000029802,image111,image26
12,4,3,B,memory-resp,#FFFFFF,#3d9fb3,image26,image102,NA,left,left,TRUE,1158,image102,image26
12,4,3,B,retrieval,NA,NA,NA,NA,image214,NA,image77,FALSE,5759.70000000298,image214,image26
12,4,3,B,retrieval,NA,NA,NA,NA,image111,NA,image111,TRUE,3679.9000000059605,image111,image26
12,4,3,B,retrieval,NA,NA,NA,NA,image77,NA,image159,FALSE,5329.399999991059,image77,image26
12,4,3,B,retrieval,NA,NA,NA,NA,image102,NA,image102,TRUE,1402.7999999970198,image102,image26
12,4,4,B,memory-resp,#af984b,#FFFFFF,image204,image26,NA,right,right,TRUE,1989.0999999940395,image204,image26
12,4,4,B,memory-resp,#FFFFFF,#2d6c3b,image26,image195,NA,left,left,TRUE,1220.7999999970198,image195,image26
12,4,4,B,memory-resp,#2132ca,#FFFFFF,image323,image26,NA,right,right,TRUE,1173,image323,image26
12,4,4,B,memory-resp,#873162,#FFFFFF,image216,image26,NA,right,right,TRUE,1008.2000000029802,image216,image26
12,4,4,B,retrieval,NA,NA,NA,NA,image323,NA,image323,TRUE,2683.5,image323,image26
12,4,4,B,retrieval,NA,NA,NA,NA,image204,NA,image204,TRUE,1881.9000000059605,image204,image26
12,4,4,B,retrieval,NA,NA,NA,NA,image216,NA,image195,FALSE,4549.5999999940395,image216,image26
12,4,4,B,retrieval,NA,NA,NA,NA,image195,NA,image216,FALSE,1959.0999999940395,image195,image26
12,4,5,B,memory-resp,#2598a7,#FFFFFF,image102,image26,NA,right,right,TRUE,2150.2000000029802,image102,image26
12,4,5,B,memory-resp,#FFFFFF,#943019,image26,image424,NA,left,left,TRUE,1090.5,image424,image26
12,4,5,B,memory-resp,#FFFFFF,#3cc10b,image26,image232,NA,left,left,TRUE,1039.2000000029802,image232,image26
12,4,5,B,memory-resp,#FFFFFF,#831db9,image26,image21,NA,left,left,TRUE,921.7999999970198,image21,image26
12,4,5,B,retrieval,NA,NA,NA,NA,image102,NA,image102,TRUE,1359.7999999970198,image102,image26
12,4,5,B,retrieval,NA,NA,NA,NA,image424,NA,image424,TRUE,1762.5,image424,image26
12,4,5,B,retrieval,NA,NA,NA,NA,image21,NA,image21,TRUE,6348.20000000298,image21,image26
12,4,5,B,retrieval,NA,NA,NA,NA,image232,NA,image232,TRUE,1092,image232,image26
12,4,6,B,memory-resp,#288f34,#FFFFFF,image1,image26,NA,right,right,TRUE,1176.0999999940395,image1,image26
12,4,6,B,memory-resp,#b2109d,#FFFFFF,image188,image26,NA,right,right,TRUE,1173.7999999970198,image188,image26
12,4,6,B,memory-resp,#FFFFFF,#966a2c,image26,image253,NA,left,left,TRUE,1779.5,image253,image26
12,4,6,B,memory-resp,#275486,#FFFFFF,image102,image26,NA,right,right,TRUE,1151.5999999940395,image102,image26
12,4,6,B,retrieval,NA,NA,NA,NA,image1,NA,image1,TRUE,2128.3999999910593,image1,image26
12,4,6,B,retrieval,NA,NA,NA,NA,image188,NA,image188,TRUE,4975.899999991059,image188,image26
12,4,6,B,retrieval,NA,NA,NA,NA,image253,NA,NULL,FALSE,NA,image253,image26
12,4,6,B,retrieval,NA,NA,NA,NA,image102,NA,image253,FALSE,1095.9000000059605,image102,image26
12,4,7,B,memory-resp,#3a9b9c,#FFFFFF,image206,image26,NA,right,right,TRUE,1456,image206,image26
12,4,7,B,memory-resp,#9428d2,#FFFFFF,image28,image26,NA,right,right,TRUE,1695.7000000029802,image28,image26
12,4,7,B,memory-resp,#FFFFFF,#995848,image26,image262,NA,left,left,TRUE,1264.2999999970198,image262,image26
12,4,7,B,memory-resp,#FFFFFF,#58b90e,image26,image300,NA,left,left,TRUE,933.2999999970198,image300,image26
12,4,7,B,retrieval,NA,NA,NA,NA,image300,NA,image300,TRUE,1250.6000000089407,image300,image26
12,4,7,B,retrieval,NA,NA,NA,NA,image206,NA,image206,TRUE,5862.29999999702,image206,image26
12,4,7,B,retrieval,NA,NA,NA,NA,image262,NA,image262,TRUE,2539.5,image262,image26
12,4,7,B,retrieval,NA,NA,NA,NA,image28,NA,image28,TRUE,1349.199999988079,image28,image26
12,4,8,B,memory-resp,#83922a,#FFFFFF,image19,image26,NA,right,right,TRUE,1683.7000000029802,image19,image26
12,4,8,B,memory-resp,#a13a6c,#FFFFFF,image299,image26,NA,right,right,TRUE,939.5,image299,image26
12,4,8,B,memory-resp,#FFFFFF,#4c9471,image26,image126,NA,left,left,TRUE,1251.5999999940395,image126,image26
12,4,8,B,memory-resp,#0d10a5,#FFFFFF,image25,image26,NA,right,right,TRUE,1240.5999999940395,image25,image26
12,4,8,B,retrieval,NA,NA,NA,NA,image19,NA,image299,FALSE,6207.5,image19,image26
12,4,8,B,retrieval,NA,NA,NA,NA,image299,NA,image25,FALSE,4086,image299,image26
12,4,8,B,retrieval,NA,NA,NA,NA,image126,NA,image126,TRUE,5521,image126,image26
12,4,8,B,retrieval,NA,NA,NA,NA,image25,NA,image19,FALSE,1912.5,image25,image26
12,4,9,B,memory-resp,#FFFFFF,#be3ca4,image26,image402,NA,left,left,TRUE,1092.9000000059605,image402,image26
12,4,9,B,memory-resp,#FFFFFF,#419053,image26,image392,NA,left,left,TRUE,973.3999999910593,image392,image26
12,4,9,B,memory-resp,#99974d,#FFFFFF,image265,image26,NA,right,right,TRUE,1076.7999999970198,image265,image26
12,4,9,B,memory-resp,#FFFFFF,#1a3f7f,image26,image377,NA,left,left,TRUE,1140.3999999910593,image377,image26
12,4,9,B,retrieval,NA,NA,NA,NA,image402,NA,image402,TRUE,1838.7000000029802,image402,image26
12,4,9,B,retrieval,NA,NA,NA,NA,image392,NA,image392,TRUE,3448.5999999940395,image392,image26
12,4,9,B,retrieval,NA,NA,NA,NA,image265,NA,image265,TRUE,3119.3999999910593,image265,image26
12,4,9,B,retrieval,NA,NA,NA,NA,image377,NA,NULL,FALSE,NA,image377,image26
12,4,10,B,memory-resp,#9ec723,#FFFFFF,image264,image26,NA,right,right,TRUE,1228.9000000059605,image264,image26
12,4,10,B,memory-resp,#d20f1c,#FFFFFF,image345,image26,NA,right,right,TRUE,1096.5,image345,image26
12,4,10,B,memory-resp,#FFFFFF,#1cb098,image26,image286,NA,left,left,TRUE,2446.5999999940395,image286,image26
12,4,10,B,memory-resp,#FFFFFF,#430ca1,image26,image169,NA,left,left,TRUE,997.6000000089407,image169,image26
12,4,10,B,retrieval,NA,NA,NA,NA,image345,NA,image345,TRUE,1479.5999999940395,image345,image26
12,4,10,B,retrieval,NA,NA,NA,NA,image169,NA,image169,TRUE,5695.70000000298,image169,image26
12,4,10,B,retrieval,NA,NA,NA,NA,image264,NA,image264,TRUE,972.1999999880791,image264,image26
12,4,10,B,retrieval,NA,NA,NA,NA,image286,NA,image286,TRUE,5517.4000000059605,image286,image26
12,4,11,B,memory-resp,#1850a5,#FFFFFF,image76,image26,NA,right,right,TRUE,1050.699999988079,image76,image26
12,4,11,B,memory-resp,#349348,#FFFFFF,image377,image26,NA,right,right,TRUE,1042.800000011921,image377,image26
12,4,11,B,memory-resp,#af3bb5,#FFFFFF,image427,image26,NA,right,right,TRUE,937.7999999970198,image427,image26
12,4,11,B,memory-resp,#FFFFFF,#925735,image26,image56,NA,left,NULL,FALSE,NA,image56,image26
12,4,11,B,retrieval,NA,NA,NA,NA,image377,NA,image76,FALSE,4789.300000011921,image377,image26
12,4,11,B,retrieval,NA,NA,NA,NA,image76,NA,image377,FALSE,4285.20000000298,image76,image26
12,4,11,B,retrieval,NA,NA,NA,NA,image427,NA,image56,FALSE,3579.0999999940395,image427,image26
12,4,11,B,retrieval,NA,NA,NA,NA,image56,NA,image427,FALSE,1282.2999999970198,image56,image26
12,4,12,B,memory-resp,#FFFFFF,#6ebe1e,image26,image395,NA,left,NULL,FALSE,NA,image395,image26
12,4,12,B,memory-resp,#FFFFFF,#9b3131,image26,image40,NA,left,left,TRUE,1132,image40,image26
12,4,12,B,memory-resp,#24777a,#FFFFFF,image264,image26,NA,right,right,TRUE,1013.5999999940395,image264,image26
12,4,12,B,memory-resp,#493564,#FFFFFF,image144,image26,NA,right,right,TRUE,748.9000000059605,image144,image26
12,4,12,B,retrieval,NA,NA,NA,NA,image264,NA,image338,FALSE,2489.4000000059605,image264,image26
12,4,12,B,retrieval,NA,NA,NA,NA,image144,NA,image144,TRUE,1211.7999999970198,image144,image26
12,4,12,B,retrieval,NA,NA,NA,NA,image40,NA,image40,TRUE,1470.7000000029802,image40,image26
12,4,12,B,retrieval,NA,NA,NA,NA,image395,NA,image264,FALSE,1890.1000000089407,image395,image26
12,4,13,B,memory-resp,#64237b,#FFFFFF,image6,image26,NA,right,right,TRUE,1192.4000000059605,image6,image26
12,4,13,B,memory-resp,#FFFFFF,#3cea10,image26,image273,NA,left,left,TRUE,1063.2000000029802,image273,image26
12,4,13,B,memory-resp,#72392c,#FFFFFF,image178,image26,NA,right,right,TRUE,2235.4000000059605,image178,image26
12,4,13,B,memory-resp,#FFFFFF,#1898dc,image26,image222,NA,left,left,TRUE,1167.2000000029802,image222,image26
12,4,13,B,retrieval,NA,NA,NA,NA,image6,NA,image6,TRUE,4000.5,image6,image26
12,4,13,B,retrieval,NA,NA,NA,NA,image178,NA,image178,TRUE,1750.9000000059605,image178,image26
12,4,13,B,retrieval,NA,NA,NA,NA,image222,NA,image222,TRUE,3582.5,image222,image26
12,4,13,B,retrieval,NA,NA,NA,NA,image273,NA,image273,TRUE,3904.8999999910593,image273,image26
12,4,14,B,memory-resp,#FFFFFF,#894329,image26,image21,NA,left,left,TRUE,812.7999999970198,image21,image26
12,4,14,B,memory-resp,#28c91d,#FFFFFF,image304,image26,NA,right,right,TRUE,1039.9000000059605,image304,image26
12,4,14,B,memory-resp,#FFFFFF,#9211b6,image26,image171,NA,left,left,TRUE,1361.5,image171,image26
12,4,14,B,memory-resp,#3c7c9f,#FFFFFF,image397,image26,NA,right,right,TRUE,953.6999999880791,image397,image26
12,4,14,B,retrieval,NA,NA,NA,NA,image171,NA,image21,FALSE,4275.9000000059605,image171,image26
12,4,14,B,retrieval,NA,NA,NA,NA,image397,NA,image397,TRUE,1970.2000000029802,image397,image26
12,4,14,B,retrieval,NA,NA,NA,NA,image304,NA,image304,TRUE,1224.2999999970198,image304,image26
12,4,14,B,retrieval,NA,NA,NA,NA,image21,NA,image171,FALSE,2208,image21,image26
12,4,15,B,memory-resp,#FFFFFF,#18c38d,image26,image42,NA,left,left,TRUE,1185.5,image42,image26
12,4,15,B,memory-resp,#FFFFFF,#bfb636,image26,image293,NA,left,left,TRUE,1047.2000000029802,image293,image26
12,4,15,B,memory-resp,#2e1d87,#FFFFFF,image194,image26,NA,right,right,TRUE,1140.7000000029802,image194,image26
12,4,15,B,memory-resp,#d90d87,#FFFFFF,image304,image26,NA,right,right,TRUE,1055.6000000089407,image304,image26
12,4,15,B,retrieval,NA,NA,NA,NA,image304,NA,image304,TRUE,2371,image304,image26
12,4,15,B,retrieval,NA,NA,NA,NA,image194,NA,image194,TRUE,2306.5,image194,image26
12,4,15,B,retrieval,NA,NA,NA,NA,image42,NA,image42,TRUE,4105.199999988079,image42,image26
12,4,15,B,retrieval,NA,NA,NA,NA,image293,NA,image293,TRUE,688.2999999970198,image293,image26
8,1,P1,C,processing,#FFFFFF,#b13549,image26,image192,NA,left,right,FALSE,1515.3999999985099,NA,NA
8,1,P1,C,processing,#FFFFFF,#6636ab,image26,image398,NA,right,right,TRUE,1365.3999999985099,NA,NA
8,1,P1,C,processing,#FFFFFF,#20cfaf,image26,image298,NA,left,left,TRUE,1140.8999999985099,NA,NA
8,1,P1,C,processing,#538f1e,#FFFFFF,image30,image26,NA,right,right,TRUE,1181.3999999985099,NA,NA
8,1,P2,C,processing,#FFFFFF,#6c8334,image26,image297,NA,left,left,TRUE,1080.699999999255,NA,NA
8,1,P2,C,processing,#1bbb99,#FFFFFF,image83,image26,NA,left,left,TRUE,949.7999999988824,NA,NA
8,1,P2,C,processing,#FFFFFF,#901420,image26,image325,NA,right,left,FALSE,920.3999999985099,NA,NA
8,1,P2,C,processing,#534695,#FFFFFF,image253,image26,NA,left,left,TRUE,1659.699999999255,NA,NA
8,1,P3,C,processing,#FFFFFF,#149f55,image26,image272,NA,left,left,TRUE,949,NA,NA
8,1,P3,C,processing,#282871,#FFFFFF,image143,image26,NA,right,right,TRUE,1088.8999999985099,NA,NA
8,1,P3,C,processing,#FFFFFF,#666e30,image26,image303,NA,left,left,TRUE,2127.7999999988824,NA,NA
8,1,P3,C,processing,#FFFFFF,#783041,image26,image82,NA,right,right,TRUE,1159.3999999985099,NA,NA
8,1,P4,C,processing,#FFFFFF,#3656bf,image26,image2,NA,left,left,TRUE,932.2999999988824,NA,NA
8,1,P4,C,processing,#FFFFFF,#2f7540,image26,image45,NA,left,left,TRUE,746.3999999985099,NA,NA
8,1,P4,C,processing,#FFFFFF,#a23998,image26,image259,NA,left,left,TRUE,1357.699999999255,NA,NA
8,1,P4,C,processing,#FFFFFF,#96560d,image26,image179,NA,left,left,TRUE,1114.699999999255,NA,NA
8,1,P5,C,processing,#FFFFFF,#828126,image26,image98,NA,left,left,TRUE,995.2999999988824,NA,NA
8,1,P5,C,processing,#3c40af,#FFFFFF,image401,image26,NA,right,right,TRUE,751.9000000003725,NA,NA
8,1,P5,C,processing,#FFFFFF,#c62f87,image26,image8,NA,right,right,TRUE,1370.8999999985099,NA,NA
8,1,P5,C,processing,#FFFFFF,#1d915d,image26,image180,NA,left,left,TRUE,1649.0999999996275,NA,NA
8,1,P6,C,processing,#c8891e,#FFFFFF,image302,image26,NA,right,right,TRUE,1311.699999999255,NA,NA
8,1,P6,C,processing,#FFFFFF,#15a843,image26,image99,NA,left,left,TRUE,923.0999999996275,NA,NA
8,1,P6,C,processing,#FFFFFF,#092f95,image26,image158,NA,left,left,TRUE,797.1999999992549,NA,NA
8,1,P6,C,processing,#952878,#FFFFFF,image389,image26,NA,right,right,TRUE,1267.2999999988824,NA,NA
8,1,P7,C,processing,#FFFFFF,#37ca16,image26,image190,NA,right,right,TRUE,1649.3999999985099,NA,NA
8,1,P7,C,processing,#FFFFFF,#8d5c3a,image26,image318,NA,left,left,TRUE,1793,NA,NA
8,1,P7,C,processing,#5c2777,#FFFFFF,image159,image26,NA,left,left,TRUE,1406,NA,NA
8,1,P7,C,processing,#FFFFFF,#3c6572,image26,image333,NA,left,left,TRUE,1352.7999999988824,NA,NA
8,1,P8,C,processing,#6e9c35,#FFFFFF,image285,image26,NA,left,left,TRUE,1114.2999999988824,NA,NA
8,1,P8,C,processing,#0b9988,#FFFFFF,image204,image26,NA,left,left,TRUE,1592.199999999255,NA,NA
8,1,P8,C,processing,#FFFFFF,#7b3233,image26,image156,NA,left,left,TRUE,1005.6999999992549,NA,NA
8,1,P8,C,processing,#FFFFFF,#7142ae,image26,image3,NA,left,left,TRUE,1296.7999999988824,NA,NA
8,1,P9,C,processing,#FFFFFF,#22df11,image26,image167,NA,left,left,TRUE,1007.3999999985099,NA,NA
8,1,P9,C,processing,#FFFFFF,#366778,image26,image431,NA,left,left,TRUE,1192.699999999255,NA,NA
8,1,P9,C,processing,#FFFFFF,#a26544,image26,image5,NA,right,right,TRUE,1010.2999999988824,NA,NA
8,1,P9,C,processing,#FFFFFF,#89488e,image26,image116,NA,left,left,TRUE,768.7000000011176,NA,NA
8,1,P10,C,processing,#FFFFFF,#2f3689,image26,image349,NA,left,left,TRUE,891.0999999996275,NA,NA
8,1,P10,C,processing,#1e8f4f,#FFFFFF,image211,image26,NA,right,right,TRUE,1113.9000000003725,NA,NA
8,1,P10,C,processing,#991466,#FFFFFF,image129,image26,NA,right,right,TRUE,843.5,NA,NA
8,1,P10,C,processing,#FFFFFF,#acb536,image26,image337,NA,left,left,TRUE,1066,NA,NA
8,1,P11,C,processing,#7e7c26,#FFFFFF,image422,image26,NA,left,right,FALSE,818.0999999996275,NA,NA
8,1,P11,C,processing,#FFFFFF,#13be7d,image26,image250,NA,right,left,FALSE,1769.4000000003725,NA,NA
8,1,P11,C,processing,#FFFFFF,#7c2d53,image26,image164,NA,left,left,TRUE,1803.8999999985099,NA,NA
8,1,P11,C,processing,#2c1881,#FFFFFF,image150,image26,NA,right,right,TRUE,2043.0999999996275,NA,NA
8,1,P12,C,processing,#FFFFFF,#a80b3f,image26,image161,NA,left,left,TRUE,1017.3999999985099,NA,NA
8,1,P12,C,processing,#9a924c,#FFFFFF,image148,image26,NA,right,right,TRUE,2351.89999999851,NA,NA
8,1,P12,C,processing,#2326b8,#FFFFFF,image101,image26,NA,left,left,TRUE,1729,NA,NA
8,1,P12,C,processing,#FFFFFF,#158e5a,image26,image309,NA,left,left,TRUE,1218.699999999255,NA,NA
8,1,P13,C,processing,#FFFFFF,#9f970f,image26,image414,NA,right,right,TRUE,1359.699999999255,NA,NA
8,1,P13,C,processing,#131fc9,#FFFFFF,image96,image26,NA,right,right,TRUE,884.8999999985099,NA,NA
8,1,P13,C,processing,#31725e,#FFFFFF,image191,image26,NA,right,right,TRUE,952.9000000003725,NA,NA
8,1,P13,C,processing,#a62147,#FFFFFF,image329,image26,NA,right,right,TRUE,722.8999999985099,NA,NA
8,1,P14,C,processing,#FFFFFF,#20168d,image26,image82,NA,right,right,TRUE,836.5,NA,NA
8,1,P14,C,processing,#ad1a7c,#FFFFFF,image256,image26,NA,right,right,TRUE,958.1000000014901,NA,NA
8,1,P14,C,processing,#2f9d6d,#FFFFFF,image212,image26,NA,left,right,FALSE,904.2000000011176,NA,NA
8,1,P14,C,processing,#FFFFFF,#827526,image26,image402,NA,left,left,TRUE,762.2999999988824,NA,NA
8,1,P15,C,processing,#8bd317,#FFFFFF,image218,image26,NA,right,right,TRUE,850.7000000011176,NA,NA
8,1,P15,C,processing,#FFFFFF,#3c3281,image26,image323,NA,left,left,TRUE,847.3999999985099,NA,NA
8,1,P15,C,processing,#FFFFFF,#6d2c44,image26,image143,NA,left,left,TRUE,815,NA,NA
8,1,P15,C,processing,#FFFFFF,#2b826e,image26,image18,NA,left,left,TRUE,901.7999999988824,NA,NA
8,1,P16,C,processing,#FFFFFF,#1220bf,image26,image166,NA,left,left,TRUE,1029.5,NA,NA
8,1,P16,C,processing,#0bbc6f,#FFFFFF,image265,image26,NA,right,right,TRUE,1029,NA,NA
8,1,P16,C,processing,#FFFFFF,#69304d,image26,image185,NA,left,left,TRUE,690.7999999988824,NA,NA
8,1,P16,C,processing,#abb72a,#FFFFFF,image375,image26,NA,right,right,TRUE,2236,NA,NA
8,1,P17,C,processing,#119db6,#FFFFFF,image229,image26,NA,right,NULL,FALSE,NA,NA,NA
8,1,P17,C,processing,#6a16a2,#FFFFFF,image377,image26,NA,right,right,TRUE,931.6000000014901,NA,NA
8,1,P17,C,processing,#FFFFFF,#ba3821,image26,image101,NA,right,right,TRUE,942.1000000014901,NA,NA
8,1,P17,C,processing,#FFFFFF,#84b927,image26,image192,NA,left,left,TRUE,1986.0999999996275,NA,NA
8,1,P18,C,processing,#8c41af,#FFFFFF,image132,image26,NA,right,right,TRUE,789.5,NA,NA
8,1,P18,C,processing,#1a7b99,#FFFFFF,image154,image26,NA,right,right,TRUE,997.5999999996275,NA,NA
8,1,P18,C,processing,#FFFFFF,#925e2f,image26,image118,NA,left,left,TRUE,1045.7999999988824,NA,NA
8,1,P18,C,processing,#FFFFFF,#38ab12,image26,image18,NA,left,left,TRUE,967.5,NA,NA
8,1,P19,C,processing,#FFFFFF,#866d37,image26,image82,NA,right,right,TRUE,829.8999999985099,NA,NA
8,1,P19,C,processing,#FFFFFF,#0d9b23,image26,image323,NA,left,left,TRUE,893,NA,NA
8,1,P19,C,processing,#FFFFFF,#4c6394,image26,image208,NA,left,left,TRUE,690.1999999992549,NA,NA
8,1,P19,C,processing,#973590,#FFFFFF,image379,image26,NA,right,right,TRUE,827,NA,NA
8,1,P20,C,processing,#FFFFFF,#732644,image26,image255,NA,left,left,TRUE,830.2999999988824,NA,NA
8,1,P20,C,processing,#1ad169,#FFFFFF,image22,image26,NA,right,right,TRUE,800.6999999992549,NA,NA
8,1,P20,C,processing,#FFFFFF,#a2ce12,image26,image148,NA,left,left,TRUE,1293.800000000745,NA,NA
8,1,P20,C,processing,#FFFFFF,#1d12af,image26,image214,NA,right,left,FALSE,800.3999999985099,NA,NA
8,1,P21,C,processing,#982f83,#FFFFFF,image118,image26,NA,right,right,TRUE,746.6999999992549,NA,NA
8,1,P21,C,processing,#FFFFFF,#30bb47,image26,image19,NA,left,left,TRUE,882.3000000007451,NA,NA
8,1,P21,C,processing,#8c7122,#FFFFFF,image6,image26,NA,right,right,TRUE,909.9000000003725,NA,NA
8,1,P21,C,processing,#1d5391,#FFFFFF,image298,image26,NA,right,right,TRUE,797.8999999985099,NA,NA
8,1,P22,C,processing,#1f7bbd,#FFFFFF,image167,image26,NA,right,right,TRUE,752.0999999996275,NA,NA
8,1,P22,C,processing,#a82999,#FFFFFF,image190,image26,NA,left,right,FALSE,880.5,NA,NA
8,1,P22,C,processing,#FFFFFF,#775537,image26,image337,NA,left,left,TRUE,1192.2000000011176,NA,NA
8,1,P22,C,processing,#1daf12,#FFFFFF,image106,image26,NA,right,right,TRUE,1097.6000000014901,NA,NA
8,1,P23,C,processing,#FFFFFF,#789852,image26,image272,NA,left,left,TRUE,683.7000000011176,NA,NA
8,1,P23,C,processing,#FFFFFF,#542673,image26,image116,NA,left,left,TRUE,727.3000000007451,NA,NA
8,1,P23,C,processing,#30a6a0,#FFFFFF,image129,image26,NA,right,right,TRUE,1003.2000000011176,NA,NA
8,1,P23,C,processing,#8a424e,#FFFFFF,image5,image26,NA,left,left,TRUE,1179,NA,NA
8,1,P24,C,processing,#FFFFFF,#3220cf,image26,image303,NA,left,left,TRUE,1660.5,NA,NA
8,1,P24,C,processing,#FFFFFF,#8d1132,image26,image99,NA,left,left,TRUE,920.3000000007451,NA,NA
8,1,P24,C,processing,#FFFFFF,#9abe37,image26,image218,NA,left,left,TRUE,801.6000000014901,NA,NA
8,1,P24,C,processing,#FFFFFF,#49887f,image26,image211,NA,left,left,TRUE,942.0999999996275,NA,NA
8,1,P25,C,processing,#792020,#FFFFFF,image303,image26,NA,right,right,TRUE,764.5,NA,NA
8,1,P25,C,processing,#649a13,#FFFFFF,image218,image26,NA,right,right,TRUE,908.2999999988824,NA,NA
8,1,P25,C,processing,#64438e,#FFFFFF,image402,image26,NA,right,right,TRUE,806.3000000007451,NA,NA
8,1,P25,C,processing,#FFFFFF,#1ccbce,image26,image318,NA,left,left,TRUE,1052.8999999985099,NA,NA
8,1,1,C,memory-resp,#0f9f2c,#FFFFFF,image285,image26,NA,left,left,TRUE,1422.2999999988824,image285,image285
8,1,1,C,memory-resp,#8a813d,#FFFFFF,image116,image26,NA,right,right,TRUE,1342,image116,image26
8,1,1,C,memory-resp,#FFFFFF,#333e66,image26,image398,NA,right,right,TRUE,905.5,image398,image398
8,1,1,C,memory-resp,#bd1f73,#FFFFFF,image18,image26,NA,right,right,TRUE,796.7000000011176,image18,image26
8,1,1,C,retrieval,NA,NA,NA,NA,image398,NA,image116,FALSE,4832.5,image398,image285
8,1,1,C,retrieval,NA,NA,NA,NA,image116,NA,image116,TRUE,2656,image116,image285
8,1,1,C,retrieval,NA,NA,NA,NA,image18,NA,image18,TRUE,1234.2999999988824,image18,image285
8,1,1,C,retrieval,NA,NA,NA,NA,image285,NA,image285,TRUE,1534.6000000014901,image285,image285
8,1,2,C,memory-resp,#d22828,#FFFFFF,image132,image26,NA,right,right,TRUE,1102.800000000745,image132,image26
8,1,2,C,memory-resp,#32a989,#FFFFFF,image108,image26,NA,right,right,TRUE,752.5,image108,image26
8,1,2,C,memory-resp,#FFFFFF,#94c82d,image26,image256,NA,left,left,TRUE,1045.2000000011176,image256,image26
8,1,2,C,memory-resp,#FFFFFF,#522a93,image26,image325,NA,right,NULL,FALSE,NA,image325,image325
8,1,2,C,retrieval,NA,NA,NA,NA,image132,NA,image132,TRUE,1427.199999999255,image132,image26
8,1,2,C,retrieval,NA,NA,NA,NA,image256,NA,image325,FALSE,3987.7999999988824,image256,image26
8,1,2,C,retrieval,NA,NA,NA,NA,image325,NA,image325,TRUE,2145.2999999988824,image325,image26
8,1,2,C,retrieval,NA,NA,NA,NA,image108,NA,image256,FALSE,1301.5,image108,image26
8,1,3,C,memory-resp,#b7de0d,#FFFFFF,image349,image26,NA,right,right,TRUE,855.2000000011176,image349,image26
8,1,3,C,memory-resp,#FFFFFF,#20cb9a,image26,image204,NA,right,right,TRUE,1010.2000000011176,image204,image204
8,1,3,C,memory-resp,#9a2337,#FFFFFF,image5,image26,NA,left,left,TRUE,870.8999999985099,image5,image5
8,1,3,C,memory-resp,#471d8b,#FFFFFF,image143,image26,NA,right,right,TRUE,916.1000000014901,image143,image26
8,1,3,C,retrieval,NA,NA,NA,NA,image5,NA,image5,TRUE,2828.5,image5,image26
8,1,3,C,retrieval,NA,NA,NA,NA,image349,NA,image349,TRUE,2375.300000000745,image349,image26
8,1,3,C,retrieval,NA,NA,NA,NA,image143,NA,image204,FALSE,2071.5,image143,image26
8,1,3,C,retrieval,NA,NA,NA,NA,image204,NA,image204,TRUE,1586.9000000003725,image204,image26
8,1,4,C,memory-resp,#7f3592,#FFFFFF,image25,image26,NA,right,right,TRUE,1589.8999999985099,image25,image26
8,1,4,C,memory-resp,#FFFFFF,#a3310a,image26,image54,NA,left,left,TRUE,2275.7000000011176,image54,image26
8,1,4,C,memory-resp,#FFFFFF,#358122,image26,image161,NA,left,left,TRUE,792.9000000003725,image161,image26
8,1,4,C,memory-resp,#306382,#FFFFFF,image212,image26,NA,left,right,FALSE,773.5,image212,image212
8,1,4,C,retrieval,NA,NA,NA,NA,image161,NA,image161,TRUE,5065.299999998882,image161,image26
8,1,4,C,retrieval,NA,NA,NA,NA,image25,NA,image25,TRUE,1071.800000000745,image25,image26
8,1,4,C,retrieval,NA,NA,NA,NA,image54,NA,image212,FALSE,3504.0999999996275,image54,image26
8,1,4,C,retrieval,NA,NA,NA,NA,image212,NA,image212,TRUE,777.6999999992549,image212,image26
8,1,5,C,memory-resp,#FFFFFF,#3ca512,image26,image211,NA,left,left,TRUE,868.2000000011176,image211,image26
8,1,5,C,memory-resp,#b61629,#FFFFFF,image99,image26,NA,right,right,TRUE,986.5999999996275,image99,image26
8,1,5,C,memory-resp,#FFFFFF,#24757a,image26,image154,NA,left,left,TRUE,708.0999999996275,image154,image26
8,1,5,C,memory-resp,#FFFFFF,#720cc6,image26,image272,NA,left,left,TRUE,671.7000000011176,image272,image26
8,1,5,C,retrieval,NA,NA,NA,NA,image272,NA,image272,TRUE,1070.1000000014901,image272,image26
8,1,5,C,retrieval,NA,NA,NA,NA,image99,NA,image99,TRUE,1887,image99,image26
8,1,5,C,retrieval,NA,NA,NA,NA,image211,NA,image154,FALSE,620.5999999996275,image211,image26
8,1,5,C,retrieval,NA,NA,NA,NA,image154,NA,image211,FALSE,1209.5,image154,image26
8,1,6,C,memory-resp,#3bb59d,#FFFFFF,image389,image26,NA,right,right,TRUE,1856.1000000014901,image389,image26
8,1,6,C,memory-resp,#FFFFFF,#4310da,image26,image156,NA,left,left,TRUE,1043.4000000003725,image156,image26
8,1,6,C,memory-resp,#774047,#FFFFFF,image129,image26,NA,right,right,TRUE,1260.300000000745,image129,image26
8,1,6,C,memory-resp,#afe713,#FFFFFF,image25,image26,NA,right,right,TRUE,741,image25,image26
8,1,6,C,retrieval,NA,NA,NA,NA,image156,NA,image156,TRUE,4438.5999999996275,image156,image26
8,1,6,C,retrieval,NA,NA,NA,NA,image129,NA,image129,TRUE,1435.7000000011176,image129,image26
8,1,6,C,retrieval,NA,NA,NA,NA,image25,NA,image389,FALSE,883.7000000011176,image25,image26
8,1,6,C,retrieval,NA,NA,NA,NA,image389,NA,image25,FALSE,2748.800000000745,image389,image26
8,1,7,C,memory-resp,#FFFFFF,#954667,image26,image129,NA,left,left,TRUE,1186.5,image129,image26
8,1,7,C,memory-resp,#FFFFFF,#5516bb,image26,image398,NA,right,right,TRUE,709.3000000007451,image398,image398
8,1,7,C,memory-resp,#FFFFFF,#96af0e,image26,image54,NA,left,left,TRUE,779,image54,image26
8,1,7,C,memory-resp,#FFFFFF,#129789,image26,image106,NA,left,left,TRUE,1049.699999999255,image106,image26
8,1,7,C,retrieval,NA,NA,NA,NA,image54,NA,image54,TRUE,5907.5,image54,image26
8,1,7,C,retrieval,NA,NA,NA,NA,image398,NA,image398,TRUE,1307.9000000003725,image398,image26
8,1,7,C,retrieval,NA,NA,NA,NA,image106,NA,image129,FALSE,2292.5,image106,image26
8,1,7,C,retrieval,NA,NA,NA,NA,image129,NA,image129,TRUE,776.4000000003725,image129,image26
8,1,8,C,memory-resp,#3235ae,#FFFFFF,image431,image26,NA,right,right,TRUE,761.6000000014901,image431,image26
8,1,8,C,memory-resp,#be0e63,#FFFFFF,image146,image26,NA,left,left,TRUE,914.9000000003725,image146,image146
8,1,8,C,memory-resp,#4ea680,#FFFFFF,image157,image26,NA,left,left,TRUE,1184.8999999985099,image157,image157
8,1,8,C,memory-resp,#FFFFFF,#9dce2c,image26,image285,NA,right,right,TRUE,1065.2000000011176,image285,image285
8,1,8,C,retrieval,NA,NA,NA,NA,image146,NA,image146,TRUE,1431.5999999996275,image146,image26
8,1,8,C,retrieval,NA,NA,NA,NA,image285,NA,image285,TRUE,4249.9000000003725,image285,image26
8,1,8,C,retrieval,NA,NA,NA,NA,image157,NA,image157,TRUE,2551.300000000745,image157,image26
8,1,8,C,retrieval,NA,NA,NA,NA,image431,NA,image431,TRUE,605.9000000003725,image431,image26
8,1,9,C,memory-resp,#a26344,#FFFFFF,image389,image26,NA,right,right,TRUE,1626.4000000003725,image389,image26
8,1,9,C,memory-resp,#FFFFFF,#276bbe,image26,image285,NA,right,right,TRUE,1023.5999999996275,image285,image285
8,1,9,C,memory-resp,#9415c6,#FFFFFF,image212,image26,NA,left,right,FALSE,1081.9000000003725,image212,image212
8,1,9,C,memory-resp,#FFFFFF,#298623,image26,image18,NA,left,left,TRUE,842.7000000011176,image18,image26
8,1,9,C,retrieval,NA,NA,NA,NA,image212,NA,image18,FALSE,5078.4000000003725,image212,image26
8,1,9,C,retrieval,NA,NA,NA,NA,image285,NA,image212,FALSE,1999.6000000014901,image285,image26
8,1,9,C,retrieval,NA,NA,NA,NA,image18,NA,image285,FALSE,1588.1000000014901,image18,image26
8,1,9,C,retrieval,NA,NA,NA,NA,image389,NA,image389,TRUE,755.2000000011176,image389,image26
8,1,10,C,memory-resp,#212ec0,#FFFFFF,image333,image26,NA,right,right,TRUE,946.6000000014901,image333,image26
8,1,10,C,memory-resp,#FFFFFF,#89346d,image26,image329,NA,left,left,TRUE,854.8000000007451,image329,image26
8,1,10,C,memory-resp,#FFFFFF,#bf9a3b,image26,image25,NA,left,left,TRUE,914.9000000003725,image25,image26
8,1,10,C,memory-resp,#FFFFFF,#08913a,image26,image83,NA,right,right,TRUE,1201.4000000003725,image83,image83
8,1,10,C,retrieval,NA,NA,NA,NA,image25,NA,image25,TRUE,5470.0999999996275,image25,image26
8,1,10,C,retrieval,NA,NA,NA,NA,image333,NA,image333,TRUE,1448.8999999985099,image333,image26
8,1,10,C,retrieval,NA,NA,NA,NA,image329,NA,image329,TRUE,1538,image329,image26
8,1,10,C,retrieval,NA,NA,NA,NA,image83,NA,image83,TRUE,1024,image83,image26
8,1,11,C,memory-resp,#ac4d35,#FFFFFF,image191,image26,NA,right,right,TRUE,1184.4000000003725,image191,image26
8,1,11,C,memory-resp,#8620d5,#FFFFFF,image211,image26,NA,right,right,TRUE,904.9000000003725,image211,image26
8,1,11,C,memory-resp,#45b51c,#FFFFFF,image156,image26,NA,right,right,TRUE,1309,image156,image26
8,1,11,C,memory-resp,#FFFFFF,#336b7a,image26,image167,NA,left,left,TRUE,696.8000000007451,image167,image26
8,1,11,C,retrieval,NA,NA,NA,NA,image211,NA,image211,TRUE,1942.4000000003725,image211,image26
8,1,11,C,retrieval,NA,NA,NA,NA,image167,NA,image191,FALSE,2796.60000000149,image167,image26
8,1,11,C,retrieval,NA,NA,NA,NA,image191,NA,image167,FALSE,976.5,image191,image26
8,1,11,C,retrieval,NA,NA,NA,NA,image156,NA,image167,FALSE,1963.1000000014901,image156,image26
8,1,12,C,memory-resp,#FFFFFF,#77513c,image26,image318,NA,left,left,TRUE,1191.4000000003725,image318,image26
8,1,12,C,memory-resp,#FFFFFF,#248424,image26,image229,NA,left,left,TRUE,2287.800000000745,image229,image26
8,1,12,C,memory-resp,#8143a3,#FFFFFF,image146,image26,NA,left,left,TRUE,1125.4000000003725,image146,image146
8,1,12,C,memory-resp,#18859a,#FFFFFF,image3,image26,NA,right,right,TRUE,737.7000000011176,image3,image26
8,1,12,C,retrieval,NA,NA,NA,NA,image146,NA,image146,TRUE,3870.5,image146,image26
8,1,12,C,retrieval,NA,NA,NA,NA,image318,NA,image318,TRUE,1318,image318,image26
8,1,12,C,retrieval,NA,NA,NA,NA,image3,NA,image229,FALSE,1519.300000000745,image3,image26
8,1,12,C,retrieval,NA,NA,NA,NA,image229,NA,image3,FALSE,2525.699999999255,image229,image26
8,1,13,C,memory-resp,#2a744b,#FFFFFF,image3,image26,NA,right,right,TRUE,957.7000000011176,image3,image26
8,1,13,C,memory-resp,#85144e,#FFFFFF,image101,image26,NA,left,left,TRUE,1157.4000000003725,image101,image101
8,1,13,C,memory-resp,#150a8f,#FFFFFF,image337,image26,NA,right,right,TRUE,750.5,image337,image26
8,1,13,C,memory-resp,#69742a,#FFFFFF,image158,image26,NA,right,right,TRUE,2114.7000000011176,image158,image26
8,1,13,C,retrieval,NA,NA,NA,NA,image3,NA,image101,FALSE,3739.2000000011176,image3,image26
8,1,13,C,retrieval,NA,NA,NA,NA,image101,NA,image3,FALSE,3014.2000000011176,image101,image26
8,1,13,C,retrieval,NA,NA,NA,NA,image337,NA,image337,TRUE,1261,image337,image26
8,1,13,C,retrieval,NA,NA,NA,NA,image158,NA,image158,TRUE,3081.5,image158,image26
8,1,14,C,memory-resp,#811d87,#FFFFFF,image30,image26,NA,right,right,TRUE,1847.1000000014901,image30,image26
8,1,14,C,memory-resp,#FFFFFF,#63bb3a,image26,image101,NA,right,right,TRUE,1788,image101,image101
8,1,14,C,memory-resp,#2c6e7d,#FFFFFF,image303,image26,NA,right,right,TRUE,1016.7000000011176,image303,image26
8,1,14,C,memory-resp,#FFFFFF,#955b4b,image26,image154,NA,left,left,TRUE,867.7000000011176,image154,image26
8,1,14,C,retrieval,NA,NA,NA,NA,image303,NA,image303,TRUE,3967.2000000011176,image303,image26
8,1,14,C,retrieval,NA,NA,NA,NA,image30,NA,image101,FALSE,3406.7000000011176,image30,image26
8,1,14,C,retrieval,NA,NA,NA,NA,image101,NA,image154,FALSE,1106.0999999996275,image101,image26
8,1,14,C,retrieval,NA,NA,NA,NA,image154,NA,image154,TRUE,1312.0999999996275,image154,image26
8,1,15,C,memory-resp,#FFFFFF,#765e32,image26,image158,NA,left,left,TRUE,1964.4000000003725,image158,image26
8,1,15,C,memory-resp,#FFFFFF,#178c17,image26,image30,NA,left,left,TRUE,964.7000000011176,image30,image26
8,1,15,C,memory-resp,#2a3d79,#FFFFFF,image302,image26,NA,right,right,TRUE,1135.699999999255,image302,image26
8,1,15,C,memory-resp,#FFFFFF,#9d1582,image26,image167,NA,left,left,TRUE,1363.4000000003725,image167,image26
8,1,15,C,retrieval,NA,NA,NA,NA,image167,NA,image167,TRUE,1484.800000000745,image167,image26
8,1,15,C,retrieval,NA,NA,NA,NA,image158,NA,image158,TRUE,3497.7999999988824,image158,image26
8,1,15,C,retrieval,NA,NA,NA,NA,image30,NA,image30,TRUE,2018.5999999996275,image30,image26
8,1,15,C,retrieval,NA,NA,NA,NA,image302,NA,image302,TRUE,597.0999999996275,image302,image26
8,2,P1,B,processing,#21bd0f,#FFFFFF,image269,image26,NA,right,right,TRUE,394.59999999962747,NA,NA
8,2,P1,B,processing,#6b5133,#FFFFFF,image112,image26,NA,right,right,TRUE,376.59999999962747,NA,NA
8,2,P1,B,processing,#FFFFFF,#b922b9,image26,image141,NA,left,left,TRUE,517,NA,NA
8,2,P1,B,processing,#1463b8,#FFFFFF,image339,image26,NA,right,right,TRUE,805.0999999996275,NA,NA
8,2,P2,B,processing,#FFFFFF,#2e428a,image26,image302,NA,left,left,TRUE,431.2999999988824,NA,NA
8,2,P2,B,processing,#9f813c,#FFFFFF,image42,image26,NA,right,right,TRUE,419,NA,NA
8,2,P2,B,processing,#FFFFFF,#bb1695,image26,image317,NA,left,left,TRUE,470.5,NA,NA
8,2,P2,B,processing,#328b55,#FFFFFF,image380,image26,NA,right,right,TRUE,407.5,NA,NA
8,2,P3,B,processing,#185981,#FFFFFF,image339,image26,NA,right,right,TRUE,427.59999999962747,NA,NA
8,2,P3,B,processing,#FFFFFF,#48a145,image26,image238,NA,left,left,TRUE,418.19999999925494,NA,NA
8,2,P3,B,processing,#FFFFFF,#a55b4a,image26,image20,NA,left,left,TRUE,463.59999999962747,NA,NA
8,2,P3,B,processing,#FFFFFF,#5e1881,image26,image361,NA,left,left,TRUE,474.59999999962747,NA,NA
8,2,P4,B,processing,#FFFFFF,#50b431,image26,image419,NA,left,left,TRUE,408.40000000037253,NA,NA
8,2,P4,B,processing,#FFFFFF,#b5241c,image26,image278,NA,left,left,TRUE,463.59999999962747,NA,NA
8,2,P4,B,processing,#611d7c,#FFFFFF,image346,image26,NA,right,right,TRUE,912.9000000003725,NA,NA
8,2,P4,B,processing,#FFFFFF,#2f7e83,image26,image244,NA,left,left,TRUE,450.19999999925494,NA,NA
8,2,P5,B,processing,#FFFFFF,#247c89,image26,image151,NA,left,left,TRUE,535.7999999988824,NA,NA
8,2,P5,B,processing,#FFFFFF,#53108e,image26,image100,NA,left,left,TRUE,480.69999999925494,NA,NA
8,2,P5,B,processing,#b14d43,#FFFFFF,image66,image26,NA,right,right,TRUE,649.9000000003725,NA,NA
8,2,P5,B,processing,#FFFFFF,#4f923a,image26,image165,NA,left,left,TRUE,882.0999999996275,NA,NA
8,2,P6,B,processing,#FFFFFF,#8fc110,image26,image64,NA,left,left,TRUE,502.2999999988824,NA,NA
8,2,P6,B,processing,#11dfb9,#FFFFFF,image37,image26,NA,right,right,TRUE,360.19999999925494,NA,NA
8,2,P6,B,processing,#FFFFFF,#462593,image26,image261,NA,left,left,TRUE,454.69999999925494,NA,NA
8,2,P6,B,processing,#FFFFFF,#a4131d,image26,image305,NA,left,left,TRUE,517,NA,NA
8,2,P7,B,processing,#FFFFFF,#464daf,image26,image293,NA,left,left,TRUE,467.19999999925494,NA,NA
8,2,P7,B,processing,#FFFFFF,#832f58,image26,image241,NA,left,left,TRUE,468,NA,NA
8,2,P7,B,processing,#FFFFFF,#278b60,image26,image117,NA,left,left,TRUE,709.6999999992549,NA,NA
8,2,P7,B,processing,#808811,#FFFFFF,image113,image26,NA,right,right,TRUE,528,NA,NA
8,2,P8,B,processing,#FFFFFF,#543687,image26,image42,NA,left,left,TRUE,500.2999999988824,NA,NA
8,2,P8,B,processing,#46918e,#FFFFFF,image264,image26,NA,right,right,TRUE,375,NA,NA
8,2,P8,B,processing,#94292a,#FFFFFF,image427,image26,NA,right,right,TRUE,753.9000000003725,NA,NA
8,2,P8,B,processing,#8dc50d,#FFFFFF,image396,image26,NA,right,right,TRUE,672.9000000003725,NA,NA
8,2,P9,B,processing,#FFFFFF,#2a7a24,image26,image324,NA,left,left,TRUE,998.2999999988824,NA,NA
8,2,P9,B,processing,#6c3672,#FFFFFF,image126,image26,NA,right,right,TRUE,354,NA,NA
8,2,P9,B,processing,#FFFFFF,#aa6f27,image26,image218,NA,left,left,TRUE,587.3999999985099,NA,NA
8,2,P9,B,processing,#0c7cac,#FFFFFF,image167,image26,NA,right,right,TRUE,412.7999999988824,NA,NA
8,2,P10,B,processing,#7652a7,#FFFFFF,image217,image26,NA,right,right,TRUE,432.40000000037253,NA,NA
8,2,P10,B,processing,#bd5732,#FFFFFF,image403,image26,NA,right,right,TRUE,453.69999999925494,NA,NA
8,2,P10,B,processing,#44787e,#FFFFFF,image20,image26,NA,right,right,TRUE,388,NA,NA
8,2,P10,B,processing,#FFFFFF,#629023,image26,image28,NA,left,left,TRUE,504,NA,NA
8,2,P11,B,processing,#FFFFFF,#853c2e,image26,image76,NA,left,left,TRUE,489.2999999988824,NA,NA
