participant,blockID,trialID,condition,screenID,leftColor,rightColor,leftImage,rightImage,correctObject,correctResp,response,acc,rt,target,distractor
3,1,P1,B,processing,#418173,#FFFFFF,image171,image26,NA,right,right,TRUE,1762.1000000000931,NA,NA
3,1,P1,B,processing,#9b2412,#FFFFFF,image287,image26,NA,right,right,TRUE,659,NA,NA
3,1,P1,B,processing,#4d18af,#FFFFFF,image107,image26,NA,right,right,TRUE,606,NA,NA
3,1,P1,B,processing,#FFFFFF,#5d911d,image26,image198,NA,left,left,TRUE,715.1999999997206,NA,NA
3,1,P2,B,processing,#945814,#FFFFFF,image70,image26,NA,right,right,TRUE,1139.3999999999069,NA,NA
3,1,P2,B,processing,#8d3790,#FFFFFF,image220,image26,NA,right,right,TRUE,601.5,NA,NA
3,1,P2,B,processing,#FFFFFF,#3c5180,image26,image128,NA,left,left,TRUE,544.2999999998137,NA,NA
3,1,P2,B,processing,#FFFFFF,#17b52a,image26,image47,NA,left,left,TRUE,531.3999999999069,NA,NA
3,1,P3,B,processing,#FFFFFF,#328572,image26,image351,NA,left,left,TRUE,619.6000000000931,NA,NA
3,1,P3,B,processing,#FFFFFF,#5a3678,image26,image254,NA,left,left,TRUE,415.29999999981374,NA,NA
3,1,P3,B,processing,#FFFFFF,#6ccf2a,image26,image163,NA,left,left,TRUE,758.8999999999069,NA,NA
3,1,P3,B,processing,#FFFFFF,#9f2214,image26,image370,NA,left,left,TRUE,713,NA,NA
3,1,P4,B,processing,#FFFFFF,#4f2574,image26,image182,NA,left,left,TRUE,721.6000000000931,NA,NA
3,1,P4,B,processing,#278678,#FFFFFF,image273,image26,NA,right,right,TRUE,864.6000000000931,NA,NA
3,1,P4,B,processing,#FFFFFF,#81c20f,image26,image420,NA,left,left,TRUE,1339.6999999997206,NA,NA
3,1,P4,B,processing,#FFFFFF,#9e3f3d,image26,image194,NA,left,left,TRUE,630.7000000001863,NA,NA
3,1,P5,B,processing,#FFFFFF,#23af7b,image26,image326,NA,left,left,TRUE,817.3999999999069,NA,NA
3,1,P5,B,processing,#FFFFFF,#292475,image26,image200,NA,left,left,TRUE,514.1000000000931,NA,NA
3,1,P5,B,processing,#FFFFFF,#95ab49,image26,image222,NA,left,left,TRUE,740.1000000000931,NA,NA
3,1,P5,B,processing,#ca2172,#FFFFFF,image391,image26,NA,right,right,TRUE,1021.3999999999069,NA,NA
3,1,P6,B,processing,#FFFFFF,#633eac,image26,image130,NA,left,left,TRUE,957.2999999998137,NA,NA
3,1,P6,B,processing,#368783,#FFFFFF,image346,image26,NA,right,right,TRUE,727.6000000000931,NA,NA
3,1,P6,B,processing,#8f0a36,#FFFFFF,image371,image26,NA,right,right,TRUE,762.1999999997206,NA,NA
3,1,P6,B,processing,#FFFFFF,#b2d41c,image26,image77,NA,left,left,TRUE,644.8999999999069,NA,NA
3,1,P7,B,processing,#637920,#FFFFFF,image72,image26,NA,right,right,TRUE,836,NA,NA
3,1,P7,B,processing,#FFFFFF,#e31662,image26,image378,NA,left,left,TRUE,848.2999999998137,NA,NA
3,1,P7,B,processing,#FFFFFF,#4111b0,image26,image421,NA,left,left,TRUE,800.5,NA,NA
3,1,P7,B,processing,#FFFFFF,#42ae95,image26,image381,NA,left,left,TRUE,772.8999999999069,NA,NA
3,1,P8,B,processing,#FFFFFF,#3498c5,image26,image173,NA,left,left,TRUE,1035.3999999999069,NA,NA
3,1,P8,B,processing,#456534,#FFFFFF,image32,image26,NA,right,right,TRUE,817.6000000000931,NA,NA
3,1,P8,B,processing,#a75749,#FFFFFF,image113,image26,NA,right,right,TRUE,829.2999999998137,NA,NA
3,1,P8,B,processing,#a722bf,#FFFFFF,image174,image26,NA,right,right,TRUE,1020.8000000002794,NA,NA
3,1,P9,B,processing,#71ab44,#FFFFFF,image39,image26,NA,right,right,TRUE,989.1000000000931,NA,NA
3,1,P9,B,processing,#FFFFFF,#c92f18,image26,image172,NA,left,left,TRUE,780.8000000002794,NA,NA
3,1,P9,B,processing,#FFFFFF,#8a52a7,image26,image189,NA,left,left,TRUE,806.8999999999069,NA,NA
3,1,P9,B,processing,#4a7f8c,#FFFFFF,image419,image26,NA,right,right,TRUE,778.7000000001863,NA,NA
3,1,P10,B,processing,#FFFFFF,#328519,image26,image232,NA,left,left,TRUE,888.1999999997206,NA,NA
3,1,P10,B,processing,#be812d,#FFFFFF,image235,image26,NA,right,right,TRUE,784.3000000002794,NA,NA
3,1,P10,B,processing,#FFFFFF,#8d1181,image26,image263,NA,left,left,TRUE,707.6000000000931,NA,NA
3,1,P10,B,processing,#FFFFFF,#3a63a1,image26,image76,NA,left,left,TRUE,846.2000000001863,NA,NA
3,1,P11,B,processing,#FFFFFF,#1153b6,image26,image286,NA,left,left,TRUE,825.1000000000931,NA,NA
3,1,P11,B,processing,#926320,#FFFFFF,image215,image26,NA,right,right,TRUE,855.0999999996275,NA,NA
3,1,P11,B,processing,#FFFFFF,#bf1fdb,image26,image91,NA,left,left,TRUE,1007.5,NA,NA
3,1,P11,B,processing,#FFFFFF,#379d2a,image26,image44,NA,left,left,TRUE,785.8999999999069,NA,NA
3,1,P12,B,processing,#FFFFFF,#815a3b,image26,image321,NA,left,left,TRUE,846.2999999998137,NA,NA
3,1,P12,B,processing,#FFFFFF,#a43fab,image26,image392,NA,left,left,TRUE,771.3999999999069,NA,NA
3,1,P12,B,processing,#FFFFFF,#0e901b,image26,image20,NA,left,left,TRUE,652.0999999996275,NA,NA
3,1,P12,B,processing,#FFFFFF,#3b86b5,image26,image384,NA,left,left,TRUE,771.2999999998137,NA,NA
3,1,P13,B,processing,#b87023,#FFFFFF,image295,image26,NA,right,right,TRUE,802.8999999999069,NA,NA
3,1,P13,B,processing,#6b2484,#FFFFFF,image405,image26,NA,right,right,TRUE,1629.1000000000931,NA,NA
3,1,P13,B,processing,#FFFFFF,#4d93ac,image26,image62,NA,left,left,TRUE,848.1000000000931,NA,NA
3,1,P13,B,processing,#4cd515,#FFFFFF,image28,image26,NA,right,right,TRUE,900.1999999997206,NA,NA
3,1,P14,B,processing,#FFFFFF,#3a8592,image26,image399,NA,left,left,TRUE,949.1000000000931,NA,NA
3,1,P14,B,processing,#7d392c,#FFFFFF,image31,image26,NA,right,right,TRUE,974.8000000002794,NA,NA
3,1,P14,B,processing,#FFFFFF,#558141,image26,image407,NA,left,left,TRUE,987.8999999999069,NA,NA
3,1,P14,B,processing,#8b41b9,#FFFFFF,image111,image26,NA,right,right,TRUE,894.8000000002794,NA,NA
3,1,P15,B,processing,#0dbaa9,#FFFFFF,image404,image26,NA,right,right,TRUE,1441.8000000002794,NA,NA
3,1,P15,B,processing,#FFFFFF,#779e51,image26,image7,NA,left,left,TRUE,979.1000000000931,NA,NA
3,1,P15,B,processing,#c03e30,#FFFFFF,image23,image26,NA,right,right,TRUE,991.5,NA,NA
3,1,P15,B,processing,#FFFFFF,#590cc6,image26,image301,NA,left,left,TRUE,910,NA,NA
3,1,P16,B,processing,#FFFFFF,#328a19,image26,image172,NA,left,left,TRUE,1065.1000000000931,NA,NA
3,1,P16,B,processing,#923a17,#FFFFFF,image300,image26,NA,right,right,TRUE,1061.6000000000931,NA,NA
3,1,P16,B,processing,#75338a,#FFFFFF,image105,image26,NA,right,right,TRUE,892.8000000002794,NA,NA
3,1,P16,B,processing,#FFFFFF,#10a0d1,image26,image205,NA,left,left,TRUE,771.6000000000931,NA,NA
3,1,P17,B,processing,#126091,#FFFFFF,image168,image26,NA,right,right,TRUE,860,NA,NA
3,1,P17,B,processing,#793285,#FFFFFF,image110,image26,NA,right,right,TRUE,844.1999999997206,NA,NA
3,1,P17,B,processing,#c16e1a,#FFFFFF,image412,image26,NA,right,right,TRUE,986.8999999999069,NA,NA
3,1,P17,B,processing,#FFFFFF,#54a654,image26,image189,NA,left,left,TRUE,942.5,NA,NA
3,1,P18,B,processing,#baa51c,#FFFFFF,image217,image26,NA,right,right,TRUE,841.8999999999069,NA,NA
3,1,P18,B,processing,#ac2f7a,#FFFFFF,image37,image26,NA,right,right,TRUE,714.2000000001863,NA,NA
3,1,P18,B,processing,#0c1c97,#FFFFFF,image152,image26,NA,right,right,TRUE,816.3999999999069,NA,NA
3,1,P18,B,processing,#FFFFFF,#15d16c,image26,image269,NA,left,left,TRUE,951.7000000001863,NA,NA
3,1,P19,B,processing,#408eb0,#FFFFFF,image284,image26,NA,right,right,TRUE,734.7000000001863,NA,NA
3,1,P19,B,processing,#FFFFFF,#477e44,image26,image353,NA,left,left,TRUE,780.8999999999069,NA,NA
3,1,P19,B,processing,#992e99,#FFFFFF,image230,image26,NA,right,right,TRUE,905.2000000001863,NA,NA
3,1,P19,B,processing,#9b440d,#FFFFFF,image198,image26,NA,right,right,TRUE,825.6999999997206,NA,NA
3,1,P20,B,processing,#FFFFFF,#1eb6be,image26,image62,NA,left,left,TRUE,1030.1000000000931,NA,NA
3,1,P20,B,processing,#4417a6,#FFFFFF,image15,image26,NA,right,right,TRUE,915.1000000000931,NA,NA
3,1,P20,B,processing,#FFFFFF,#914651,image26,image35,NA,left,left,TRUE,1549,NA,NA
3,1,P20,B,processing,#5c812c,#FFFFFF,image342,image26,NA,right,right,TRUE,976.7000000001863,NA,NA
3,1,P21,B,processing,#FFFFFF,#80237a,image26,image357,NA,left,left,TRUE,982.5,NA,NA
3,1,P21,B,processing,#FFFFFF,#2f7546,image26,image314,NA,left,left,TRUE,869.1000000000931,NA,NA
3,1,P21,B,processing,#d39b22,#FFFFFF,image163,image26,NA,right,right,TRUE,893.7999999998137,NA,NA
3,1,P21,B,processing,#FFFFFF,#334571,image26,image71,NA,left,left,TRUE,803,NA,NA
3,1,P22,B,processing,#639f19,#FFFFFF,image102,image26,NA,right,right,TRUE,1004.7999999998137,NA,NA
3,1,P22,B,processing,#FFFFFF,#439d99,image26,image393,NA,left,left,TRUE,757.1000000000931,NA,NA
3,1,P22,B,processing,#FFFFFF,#671adb,image26,image338,NA,left,left,TRUE,778.3999999999069,NA,NA
3,1,P22,B,processing,#a8292d,#FFFFFF,image340,image26,NA,right,right,TRUE,882.7000000001863,NA,NA
3,1,P23,B,processing,#FFFFFF,#a3d425,image26,image147,NA,left,left,TRUE,855.6000000000931,NA,NA
3,1,P23,B,processing,#FFFFFF,#7b0ccf,image26,image16,NA,left,left,TRUE,789.2000000001863,NA,NA
3,1,P23,B,processing,#25c5d0,#FFFFFF,image258,image26,NA,right,right,TRUE,874.0999999996275,NA,NA
3,1,P23,B,processing,#aa0e1d,#FFFFFF,image94,image26,NA,right,right,TRUE,839.8999999999069,NA,NA
3,1,P24,B,processing,#d91c77,#FFFFFF,image301,image26,NA,right,right,TRUE,1043,NA,NA
3,1,P24,B,processing,#FFFFFF,#817118,image26,image133,NA,left,left,TRUE,842.3999999999069,NA,NA
3,1,P24,B,processing,#FFFFFF,#454f82,image26,image290,NA,left,left,TRUE,740.3000000002794,NA,NA
3,1,P24,B,processing,#337a4c,#FFFFFF,image286,image26,NA,right,right,TRUE,996.1000000000931,NA,NA
3,1,P25,B,processing,#867546,#FFFFFF,image356,image26,NA,right,right,TRUE,1103.5,NA,NA
3,1,P25,B,processing,#28b851,#FFFFFF,image222,image26,NA,right,right,TRUE,774.6000000000931,NA,NA
3,1,P25,B,processing,#FFFFFF,#b71a69,image26,image248,NA,left,left,TRUE,717.1000000000931,NA,NA
3,1,P25,B,processing,#FFFFFF,#4a66a5,image26,image276,NA,left,left,TRUE,824.6999999997206,NA,NA
3,1,1,B,memory-resp,#d13a15,#FFFFFF,image308,image26,NA,right,right,TRUE,1456.7999999998137,image308,image26
3,1,1,B,memory-resp,#FFFFFF,#2aa1cf,image26,image187,NA,left,left,TRUE,1004.2999999998137,image187,image26
3,1,1,B,memory-resp,#5a1e85,#FFFFFF,image335,image26,NA,right,right,TRUE,1597.3999999999069,image335,image26
3,1,1,B,memory-resp,#2ba90f,#FFFFFF,image413,image26,NA,right,right,TRUE,833.3000000002794,image413,image26
3,1,1,B,retrieval,NA,NA,NA,NA,image187,NA,image187,TRUE,1935.1000000000931,image187,image26
3,1,1,B,retrieval,NA,NA,NA,NA,image413,NA,image413,TRUE,2083.7000000001863,image413,image26
3,1,1,B,retrieval,NA,NA,NA,NA,image308,NA,image308,TRUE,2915.7000000001863,image308,image26
3,1,1,B,retrieval,NA,NA,NA,NA,image335,NA,image335,TRUE,753.2999999998137,image335,image26
3,1,2,B,memory-resp,#319069,#FFFFFF,image138,image26,NA,right,right,TRUE,1243.8999999999069,image138,image26
3,1,2,B,memory-resp,#FFFFFF,#d62454,image26,image320,NA,left,left,TRUE,1082.2999999998137,image320,image26
3,1,2,B,memory-resp,#b8b832,#FFFFFF,image93,image26,NA,right,right,TRUE,1276.5,image93,image26
3,1,2,B,memory-resp,#FFFFFF,#3e376c,image26,image228,NA,left,left,TRUE,796,image228,image26
3,1,2,B,retrieval,NA,NA,NA,NA,image138,NA,image320,FALSE,1710.1000000000931,image138,image26
3,1,2,B,retrieval,NA,NA,NA,NA,image228,NA,image228,TRUE,1086,image228,image26
3,1,2,B,retrieval,NA,NA,NA,NA,image320,NA,image138,FALSE,3918.2000000001863,image320,image26
3,1,2,B,retrieval,NA,NA,NA,NA,image93,NA,image93,TRUE,442.10000000009313,image93,image26
3,1,3,B,memory-resp,#FFFFFF,#591c97,image26,image40,NA,left,left,TRUE,1485.1999999997206,image40,image26
3,1,3,B,memory-resp,#FFFFFF,#c91f13,image26,image78,NA,left,left,TRUE,809.2000000001863,image78,image26
3,1,3,B,memory-resp,#FFFFFF,#0ec7ec,image26,image342,NA,left,left,TRUE,886,image342,image26
3,1,3,B,memory-resp,#FFFFFF,#40d41c,image26,image34,NA,left,left,TRUE,618.2000000001863,image34,image26
3,1,3,B,retrieval,NA,NA,NA,NA,image40,NA,image40,TRUE,1674.5999999996275,image40,image26
3,1,3,B,retrieval,NA,NA,NA,NA,image78,NA,image342,FALSE,1628,image78,image26
3,1,3,B,retrieval,NA,NA,NA,NA,image34,NA,image34,TRUE,1398.5,image34,image26
3,1,3,B,retrieval,NA,NA,NA,NA,image342,NA,image78,FALSE,2533.8000000002794,image342,image26
3,1,4,B,memory-resp,#FFFFFF,#5c9f56,image26,image241,NA,left,left,TRUE,1645.7000000001863,image241,image26
3,1,4,B,memory-resp,#FFFFFF,#468aaa,image26,image416,NA,left,left,TRUE,1310.3999999999069,image416,image26
3,1,4,B,memory-resp,#FFFFFF,#6f3371,image26,image388,NA,left,left,TRUE,839.1000000000931,image388,image26
3,1,4,B,memory-resp,#be563c,#FFFFFF,image60,image26,NA,right,right,TRUE,937.2000000001863,image60,image26
3,1,4,B,retrieval,NA,NA,NA,NA,image60,NA,image60,TRUE,1201.6999999997206,image60,image26
3,1,4,B,retrieval,NA,NA,NA,NA,image388,NA,image388,TRUE,887.2000000001863,image388,image26
3,1,4,B,retrieval,NA,NA,NA,NA,image416,NA,image241,FALSE,1636,image416,image26
3,1,4,B,retrieval,NA,NA,NA,NA,image241,NA,image416,FALSE,2371.7000000001863,image241,image26
3,1,5,B,memory-resp,#FFFFFF,#8d923f,image26,image34,NA,left,left,TRUE,1868,image34,image26
3,1,5,B,memory-resp,#FFFFFF,#4d5a8f,image26,image104,NA,left,left,TRUE,844.3000000002794,image104,image26
3,1,5,B,memory-resp,#FFFFFF,#18a04c,image26,image223,NA,left,left,TRUE,742.8000000002794,image223,image26
3,1,5,B,memory-resp,#FFFFFF,#991469,image26,image363,NA,left,left,TRUE,608,image363,image26
3,1,5,B,retrieval,NA,NA,NA,NA,image34,NA,image34,TRUE,2024.7999999998137,image34,image26
3,1,5,B,retrieval,NA,NA,NA,NA,image104,NA,image223,FALSE,1185,image104,image26
3,1,5,B,retrieval,NA,NA,NA,NA,image363,NA,image34,FALSE,5985.699999999255,image363,image26
3,1,5,B,retrieval,NA,NA,NA,NA,image223,NA,image104,FALSE,766.0999999996275,image223,image26
3,1,6,B,memory-resp,#1daa89,#FFFFFF,image385,image26,NA,right,right,TRUE,1915.0999999996275,image385,image26
3,1,6,B,memory-resp,#FFFFFF,#d92027,image26,image145,NA,left,left,TRUE,1005.1999999992549,image145,image26
3,1,6,B,memory-resp,#FFFFFF,#a1b82e,image26,image425,NA,left,left,TRUE,961.8999999994412,image425,image26
3,1,6,B,memory-resp,#FFFFFF,#47378b,image26,image107,NA,left,left,TRUE,577.1999999992549,image107,image26
3,1,6,B,retrieval,NA,NA,NA,NA,image385,NA,image385,TRUE,9208.899999999441,image385,image26
3,1,6,B,retrieval,NA,NA,NA,NA,image425,NA,image425,TRUE,1969.699999999255,image425,image26
3,1,6,B,retrieval,NA,NA,NA,NA,image145,NA,image145,TRUE,925.7000000001863,image145,image26
3,1,6,B,retrieval,NA,NA,NA,NA,image107,NA,image139,FALSE,3796.7999999998137,image107,image26
3,1,7,B,memory-resp,#FFFFFF,#634a96,image26,image216,NA,left,left,TRUE,2197.9000000003725,image216,image26
3,1,7,B,memory-resp,#b30f17,#FFFFFF,image347,image26,NA,right,right,TRUE,1410.699999999255,image347,image26
3,1,7,B,memory-resp,#509b7e,#FFFFFF,image142,image26,NA,right,right,TRUE,733.8999999994412,image142,image26
3,1,7,B,memory-resp,#80a81a,#FFFFFF,image186,image26,NA,right,right,TRUE,809.0999999996275,image186,image26
3,1,7,B,retrieval,NA,NA,NA,NA,image216,NA,image142,FALSE,8432.200000000186,image216,image26
3,1,7,B,retrieval,NA,NA,NA,NA,image142,NA,image216,FALSE,4814.0999999996275,image142,image26
3,1,7,B,retrieval,NA,NA,NA,NA,image347,NA,image347,TRUE,951.5,image347,image26
3,1,7,B,retrieval,NA,NA,NA,NA,image186,NA,image186,TRUE,759.5,image186,image26
3,1,8,B,memory-resp,#a7b50d,#FFFFFF,image16,image26,NA,right,right,TRUE,1504.5,image16,image26
3,1,8,B,memory-resp,#39267e,#FFFFFF,image260,image26,NA,right,right,TRUE,836.5,image260,image26
3,1,8,B,memory-resp,#7b1e49,#FFFFFF,image123,image26,NA,right,right,TRUE,557.7000000001863,image123,image26
3,1,8,B,memory-resp,#42ae9e,#FFFFFF,image411,image26,NA,right,right,TRUE,670.5999999996275,image411,image26
3,1,8,B,retrieval,NA,NA,NA,NA,image411,NA,image411,TRUE,1784.8999999994412,image411,image26
3,1,8,B,retrieval,NA,NA,NA,NA,image260,NA,image260,TRUE,4074.9000000003725,image260,image26
3,1,8,B,retrieval,NA,NA,NA,NA,image123,NA,image123,TRUE,4130.799999999814,image123,image26
3,1,8,B,retrieval,NA,NA,NA,NA,image16,NA,image16,TRUE,930.3999999994412,image16,image26
3,1,9,B,memory-resp,#522092,#FFFFFF,image299,image26,NA,right,right,TRUE,1059.2999999998137,image299,image26
3,1,9,B,memory-resp,#FFFFFF,#319b8b,image26,image284,NA,left,left,TRUE,1280.199999999255,image284,image26
3,1,9,B,memory-resp,#FFFFFF,#6e8835,image26,image200,NA,left,left,TRUE,682.5,image200,image26
3,1,9,B,memory-resp,#FFFFFF,#9e3d51,image26,image17,NA,left,left,TRUE,606.1000000005588,image17,image26
3,1,9,B,retrieval,NA,NA,NA,NA,image17,NA,image17,TRUE,948.5,image17,image26
3,1,9,B,retrieval,NA,NA,NA,NA,image299,NA,image299,TRUE,2176.2999999998137,image299,image26
3,1,9,B,retrieval,NA,NA,NA,NA,image200,NA,image200,TRUE,5818.299999999814,image200,image26
3,1,9,B,retrieval,NA,NA,NA,NA,image284,NA,image284,TRUE,751.6000000005588,image284,image26
3,1,10,B,memory-resp,#FFFFFF,#8e2c0b,image26,image100,NA,left,left,TRUE,2468.2000000001863,image100,image26
3,1,10,B,memory-resp,#FFFFFF,#7a1ca6,image26,image40,NA,left,left,TRUE,427.70000000018626,image40,image26
3,1,10,B,memory-resp,#49e510,#FFFFFF,image258,image26,NA,right,right,TRUE,621.2999999998137,image258,image26
3,1,10,B,memory-resp,#2f6474,#FFFFFF,image232,image26,NA,right,right,TRUE,732.8999999994412,image232,image26
3,1,10,B,retrieval,NA,NA,NA,NA,image232,NA,image232,TRUE,964.7000000001863,image232,image26
3,1,10,B,retrieval,NA,NA,NA,NA,image258,NA,image258,TRUE,1240.2000000001863,image258,image26
3,1,10,B,retrieval,NA,NA,NA,NA,image100,NA,image100,TRUE,1945.7000000001863,image100,image26
3,1,10,B,retrieval,NA,NA,NA,NA,image40,NA,image40,TRUE,538.2999999998137,image40,image26
3,1,11,B,memory-resp,#9a6b4c,#FFFFFF,image12,image26,NA,right,right,TRUE,1194.2999999998137,image12,image26
3,1,11,B,memory-resp,#FFFFFF,#269a1d,image26,image216,NA,left,left,TRUE,984.7999999998137,image216,image26
3,1,11,B,memory-resp,#bb1cca,#FFFFFF,image257,image26,NA,right,right,TRUE,815.7000000001863,image257,image26
3,1,11,B,memory-resp,#FFFFFF,#1290de,image26,image178,NA,left,left,TRUE,815.1000000005588,image178,image26
3,1,11,B,retrieval,NA,NA,NA,NA,image12,NA,image12,TRUE,1870.2999999998137,image12,image26
3,1,11,B,retrieval,NA,NA,NA,NA,image178,NA,image178,TRUE,1951.4000000003725,image178,image26
3,1,11,B,retrieval,NA,NA,NA,NA,image257,NA,image257,TRUE,1384.0999999996275,image257,image26
3,1,11,B,retrieval,NA,NA,NA,NA,image216,NA,image216,TRUE,870.5,image216,image26
3,1,12,B,memory-resp,#FFFFFF,#41a02c,image26,image408,NA,left,left,TRUE,933.9000000003725,image408,image26
3,1,12,B,memory-resp,#6e356c,#FFFFFF,image388,image26,NA,right,right,TRUE,886.5999999996275,image388,image26
3,1,12,B,memory-resp,#FFFFFF,#245275,image26,image23,NA,left,left,TRUE,683.9000000003725,image23,image26
3,1,12,B,memory-resp,#ba6440,#FFFFFF,image113,image26,NA,right,right,TRUE,747.4000000003725,image113,image26
3,1,12,B,retrieval,NA,NA,NA,NA,image113,NA,image113,TRUE,1220.1000000005588,image113,image26
3,1,12,B,retrieval,NA,NA,NA,NA,image23,NA,image23,TRUE,1680.2000000001863,image23,image26
3,1,12,B,retrieval,NA,NA,NA,NA,image408,NA,image408,TRUE,3644.2000000001863,image408,image26
3,1,12,B,retrieval,NA,NA,NA,NA,image388,NA,image388,TRUE,502.09999999962747,image388,image26
3,1,13,B,memory-resp,#9d11c0,#FFFFFF,image120,image26,NA,right,right,TRUE,1017.5,image120,image26
3,1,13,B,memory-resp,#8e1c0b,#FFFFFF,image416,image26,NA,right,right,TRUE,740.5,image416,image26
3,1,13,B,memory-resp,#4b9c0d,#FFFFFF,image257,image26,NA,right,right,TRUE,730,image257,image26
3,1,13,B,memory-resp,#227e87,#FFFFFF,image117,image26,NA,right,right,TRUE,548.6000000005588,image117,image26
3,1,13,B,retrieval,NA,NA,NA,NA,image117,NA,image117,TRUE,2762.100000000559,image117,image26
3,1,13,B,retrieval,NA,NA,NA,NA,image257,NA,image257,TRUE,1791.7999999998137,image257,image26
3,1,13,B,retrieval,NA,NA,NA,NA,image120,NA,image120,TRUE,4692.200000000186,image120,image26
3,1,13,B,retrieval,NA,NA,NA,NA,image416,NA,image416,TRUE,1445.1000000005588,image416,image26
3,1,14,B,memory-resp,#723b3c,#FFFFFF,image251,image26,NA,right,right,TRUE,1576,image251,image26
3,1,14,B,memory-resp,#FFFFFF,#70932f,image26,image197,NA,left,left,TRUE,841.0999999996275,image197,image26
3,1,14,B,memory-resp,#500f99,#FFFFFF,image293,image26,NA,right,right,TRUE,855.5,image293,image26
3,1,14,B,memory-resp,#FFFFFF,#12c4af,image26,image287,NA,left,left,TRUE,683.5999999996275,image287,image26
3,1,14,B,retrieval,NA,NA,NA,NA,image287,NA,image287,TRUE,1084.2999999998137,image287,image26
3,1,14,B,retrieval,NA,NA,NA,NA,image293,NA,image293,TRUE,994.6000000005588,image293,image26
3,1,14,B,retrieval,NA,NA,NA,NA,image251,NA,image251,TRUE,2432.2000000001863,image251,image26
3,1,14,B,retrieval,NA,NA,NA,NA,image197,NA,image197,TRUE,4995.9000000003725,image197,image26
3,1,15,B,memory-resp,#FFFFFF,#96511d,image26,image315,NA,left,left,TRUE,1224.7000000001863,image315,image26
3,1,15,B,memory-resp,#8d32bd,#FFFFFF,image413,image26,NA,right,right,TRUE,723.9000000003725,image413,image26
3,1,15,B,memory-resp,#4f7792,#FFFFFF,image355,image26,NA,right,right,TRUE,658.9000000003725,image355,image26
3,1,15,B,memory-resp,#FFFFFF,#456d37,image26,image209,NA,left,left,TRUE,692.8999999994412,image209,image26
3,1,15,B,retrieval,NA,NA,NA,NA,image413,NA,image315,FALSE,3113.5,image413,image26
3,1,15,B,retrieval,NA,NA,NA,NA,image315,NA,NULL,FALSE,NA,image315,image26
3,1,15,B,retrieval,NA,NA,NA,NA,image209,NA,image209,TRUE,1827.1000000005588,image209,image26
3,1,15,B,retrieval,NA,NA,NA,NA,image355,NA,image355,TRUE,1054.1000000005588,image355,image26
3,2,P1,C,processing,#1185bb,#FFFFFF,image342,image26,NA,left,left,TRUE,1256.6000000005588,NA,NA
3,2,P1,C,processing,#408b23,#FFFFFF,image103,image26,NA,left,left,TRUE,770.9000000003725,NA,NA
3,2,P1,C,processing,#FFFFFF,#7e199a,image26,image113,NA,right,right,TRUE,777.2000000001863,NA,NA
3,2,P1,C,processing,#FFFFFF,#9b6b2c,image26,image364,NA,left,right,FALSE,1119.2999999998137,NA,NA
3,2,P2,C,processing,#8b4732,#FFFFFF,image424,image26,NA,left,left,TRUE,947.0999999996275,NA,NA
3,2,P2,C,processing,#24668f,#FFFFFF,image88,image26,NA,right,right,TRUE,1045.3999999994412,NA,NA
3,2,P2,C,processing,#FFFFFF,#a744a0,image26,image320,NA,right,right,TRUE,1046.7999999998137,NA,NA
3,2,P2,C,processing,#2ab70b,#FFFFFF,image173,image26,NA,left,left,TRUE,755,NA,NA
3,2,P3,C,processing,#96176e,#FFFFFF,image223,image26,NA,left,left,TRUE,856.3999999994412,NA,NA
3,2,P3,C,processing,#FFFFFF,#2b5ab1,image26,image169,NA,right,right,TRUE,672.2000000001863,NA,NA
3,2,P3,C,processing,#bf8418,#FFFFFF,image186,image26,NA,left,right,FALSE,1138.2000000001863,NA,NA
3,2,P3,C,processing,#FFFFFF,#21ba38,image26,image68,NA,right,right,TRUE,1060.2000000001863,NA,NA
3,2,P4,C,processing,#673489,#FFFFFF,image241,image26,NA,left,left,TRUE,972.6000000005588,NA,NA
3,2,P4,C,processing,#15629d,#FFFFFF,image125,image26,NA,right,right,TRUE,1020.5,NA,NA
3,2,P4,C,processing,#c63f2a,#FFFFFF,image391,image26,NA,left,left,TRUE,708.4000000003725,NA,NA
3,2,P4,C,processing,#FFFFFF,#49a838,image26,image215,NA,right,right,TRUE,2363.7999999998137,NA,NA
3,2,P5,C,processing,#FFFFFF,#2e1f9e,image26,image124,NA,right,right,TRUE,2323.2000000001863,NA,NA
3,2,P5,C,processing,#FFFFFF,#15c17f,image26,image115,NA,left,left,TRUE,1140.2000000001863,NA,NA
3,2,P5,C,processing,#FFFFFF,#8e8a39,image26,image200,NA,left,left,TRUE,1235.2999999998137,NA,NA
3,2,P5,C,processing,#ca2b98,#FFFFFF,image230,image26,NA,left,left,TRUE,908.0999999996275,NA,NA
3,2,P6,C,processing,#3e4f7e,#FFFFFF,image112,image26,NA,right,right,TRUE,999.6000000005588,NA,NA
3,2,P6,C,processing,#2f8e4d,#FFFFFF,image102,image26,NA,left,left,TRUE,667.5,NA,NA
3,2,P6,C,processing,#FFFFFF,#916621,image26,image47,NA,left,right,FALSE,1826.2000000001863,NA,NA
3,2,P6,C,processing,#97118e,#FFFFFF,image40,image26,NA,left,left,TRUE,1236.4000000003725,NA,NA
3,2,P7,C,processing,#77307e,#FFFFFF,image232,image26,NA,left,left,TRUE,784.0999999996275,NA,NA
3,2,P7,C,processing,#836144,#FFFFFF,image94,image26,NA,right,right,TRUE,1174.0999999996275,NA,NA
3,2,P7,C,processing,#FFFFFF,#55a249,image26,image186,NA,right,left,FALSE,1290.3999999994412,NA,NA
3,2,P7,C,processing,#0d5c91,#FFFFFF,image419,image26,NA,left,left,TRUE,1638.8999999994412,NA,NA
3,2,P8,C,processing,#FFFFFF,#0dbf0d,image26,image258,NA,left,left,TRUE,1057.7000000001863,NA,NA
3,2,P8,C,processing,#FFFFFF,#731994,image26,image169,NA,right,right,TRUE,632,NA,NA
3,2,P8,C,processing,#3d5f71,#FFFFFF,image71,image26,NA,right,right,TRUE,1277.5,NA,NA
3,2,P8,C,processing,#FFFFFF,#824e17,image26,image187,NA,right,right,TRUE,771.1000000005588,NA,NA
3,2,P9,C,processing,#FFFFFF,#317b1e,image26,image321,NA,right,right,TRUE,1618.0999999996275,NA,NA
3,2,P9,C,processing,#e55315,#FFFFFF,image102,image26,NA,left,left,TRUE,663.2999999998137,NA,NA
3,2,P9,C,processing,#761291,#FFFFFF,image301,image26,NA,left,left,TRUE,687.2999999998137,NA,NA
3,2,P9,C,processing,#29949e,#FFFFFF,image195,image26,NA,left,left,TRUE,808.5999999996275,NA,NA
3,2,P10,C,processing,#7f436e,#FFFFFF,image1,image26,NA,right,right,TRUE,821.4000000003725,NA,NA
3,2,P10,C,processing,#1444e1,#FFFFFF,image12,image26,NA,right,right,TRUE,825,NA,NA
3,2,P10,C,processing,#20794b,#FFFFFF,image60,image26,NA,left,left,TRUE,814.2999999998137,NA,NA
3,2,P10,C,processing,#FFFFFF,#b08e11,image26,image420,NA,right,right,TRUE,763.7000000001863,NA,NA
3,2,P11,C,processing,#FFFFFF,#c7bc29,image26,image10,NA,left,left,TRUE,1096.7000000001863,NA,NA
3,2,P11,C,processing,#1c3bb5,#FFFFFF,image391,image26,NA,left,left,TRUE,903,NA,NA
3,2,P11,C,processing,#FFFFFF,#1a933a,image26,image266,NA,left,left,TRUE,1081.9000000003725,NA,NA
3,2,P11,C,processing,#c0217d,#FFFFFF,image241,image26,NA,left,left,TRUE,781.2000000001863,NA,NA
3,2,P12,C,processing,#4f297a,#FFFFFF,image181,image26,NA,left,left,TRUE,903.7999999998137,NA,NA
3,2,P12,C,processing,#3d8994,#FFFFFF,image326,image26,NA,right,right,TRUE,961.0999999996275,NA,NA
3,2,P12,C,processing,#FFFFFF,#577c2d,image26,image68,NA,right,right,TRUE,1018,NA,NA
3,2,P12,C,processing,#FFFFFF,#a22315,image26,image274,NA,left,left,TRUE,1287.7999999998137,NA,NA
3,2,P13,C,processing,#FFFFFF,#588141,image26,image195,NA,right,right,TRUE,1191.3999999994412,NA,NA
3,2,P13,C,processing,#8b3a27,#FFFFFF,image299,image26,NA,left,left,TRUE,647.0999999996275,NA,NA
3,2,P13,C,processing,#FFFFFF,#146aa3,image26,image27,NA,left,left,TRUE,837,NA,NA
3,2,P13,C,processing,#742d95,#FFFFFF,image79,image26,NA,left,left,TRUE,903,NA,NA
3,2,P14,C,processing,#5d6935,#FFFFFF,image394,image26,NA,right,right,TRUE,1230.8999999994412,NA,NA
3,2,P14,C,processing,#248f78,#FFFFFF,image58,image26,NA,right,right,TRUE,1010.2999999998137,NA,NA
3,2,P14,C,processing,#44387a,#FFFFFF,image39,image26,NA,right,left,FALSE,658.0999999996275,NA,NA
3,2,P14,C,processing,#ab3666,#FFFFFF,image276,image26,NA,left,left,TRUE,2393.100000000559,NA,NA
3,2,P15,C,processing,#ab2b60,#FFFFFF,image279,image26,NA,left,left,TRUE,737.3999999994412,NA,NA
3,2,P15,C,processing,#FFFFFF,#a2a215,image26,image62,NA,left,left,TRUE,987.2999999998137,NA,NA
3,2,P15,C,processing,#151f84,#FFFFFF,image194,image26,NA,left,left,TRUE,1165.7999999998137,NA,NA
3,2,P15,C,processing,#2fa761,#FFFFFF,image301,image26,NA,left,left,TRUE,761.3999999994412,NA,NA
3,2,P16,C,processing,#FFFFFF,#494190,image26,image330,NA,right,right,TRUE,1068.1000000005588,NA,NA
3,2,P16,C,processing,#FFFFFF,#a93d73,image26,image86,NA,left,left,TRUE,859.7999999998137,NA,NA
3,2,P16,C,processing,#FFFFFF,#b2e01a,image26,image273,NA,right,right,TRUE,675.2999999998137,NA,NA
3,2,P16,C,processing,#469581,#FFFFFF,image88,image26,NA,right,right,TRUE,808.5,NA,NA
3,2,P17,C,processing,#187690,#FFFFFF,image424,image26,NA,left,left,TRUE,706.1000000005588,NA,NA
3,2,P17,C,processing,#79458c,#FFFFFF,image104,image26,NA,right,right,TRUE,1228.9000000003725,NA,NA
3,2,P17,C,processing,#FFFFFF,#58981f,image26,image340,NA,left,left,TRUE,1036.8999999994412,NA,NA
3,2,P17,C,processing,#753e3f,#FFFFFF,image152,image26,NA,left,left,TRUE,747.2000000001863,NA,NA
3,2,P18,C,processing,#a75272,#FFFFFF,image340,image26,NA,right,right,TRUE,775.4000000003725,NA,NA
3,2,P18,C,processing,#4a489d,#FFFFFF,image228,image26,NA,left,right,FALSE,1555,NA,NA
3,2,P18,C,processing,#FFFFFF,#4c9a82,image26,image187,NA,right,right,TRUE,911.4000000003725,NA,NA
3,2,P18,C,processing,#5d6b38,#FFFFFF,image209,image26,NA,right,right,TRUE,966.5,NA,NA
3,2,P19,C,processing,#FFFFFF,#803340,image26,image235,NA,left,left,TRUE,884.5999999996275,NA,NA
3,2,P19,C,processing,#FFFFFF,#5e12d9,image26,image262,NA,left,left,TRUE,880,NA,NA
3,2,P19,C,processing,#FFFFFF,#698d49,image26,image340,NA,left,left,TRUE,788.3999999994412,NA,NA
3,2,P19,C,processing,#14dee1,#FFFFFF,image261,image26,NA,right,right,TRUE,786.5,NA,NA
3,2,P20,C,processing,#969816,#FFFFFF,image384,image26,NA,left,left,TRUE,1109.3999999994412,NA,NA
3,2,P20,C,processing,#3e3cb9,#FFFFFF,image40,image26,NA,left,left,TRUE,1003.5,NA,NA
3,2,P20,C,processing,#FFFFFF,#8c1754,image26,image327,NA,left,left,TRUE,791,NA,NA
3,2,P20,C,processing,#FFFFFF,#1d864b,image26,image232,NA,right,right,TRUE,618.7000000001863,NA,NA
3,2,P21,C,processing,#FFFFFF,#b5217f,image26,image64,NA,right,right,TRUE,874.7999999998137,NA,NA
3,2,P21,C,processing,#FFFFFF,#a2a937,image26,image20,NA,left,left,TRUE,1742.1000000005588,NA,NA
3,2,P21,C,processing,#20287e,#FFFFFF,image160,image26,NA,right,right,TRUE,826.3000000007451,NA,NA
3,2,P21,C,processing,#398e65,#FFFFFF,image217,image26,NA,right,right,TRUE,1124.0999999996275,NA,NA
3,2,P22,C,processing,#497ea2,#FFFFFF,image236,image26,NA,right,right,TRUE,980.5999999996275,NA,NA
3,2,P22,C,processing,#FFFFFF,#14a90a,image26,image88,NA,left,left,TRUE,782.9000000003725,NA,NA
3,2,P22,C,processing,#FFFFFF,#8c309c,image26,image222,NA,right,right,TRUE,912.7000000001863,NA,NA
3,2,P22,C,processing,#FFFFFF,#8b1f13,image26,image290,NA,left,left,TRUE,766.1000000005588,NA,NA
3,2,P23,C,processing,#FFFFFF,#8f0a84,image26,image59,NA,left,left,TRUE,854.7999999998137,NA,NA
3,2,P23,C,processing,#FFFFFF,#22547c,image26,image405,NA,left,left,TRUE,1057.300000000745,NA,NA
3,2,P23,C,processing,#FFFFFF,#825d26,image26,image193,NA,right,right,TRUE,824.8000000007451,NA,NA
3,2,P23,C,processing,#FFFFFF,#327e25,image26,image264,NA,left,left,TRUE,856.2999999998137,NA,NA
3,2,P24,C,processing,#38706c,#FFFFFF,image60,image26,NA,left,left,TRUE,989.2000000001863,NA,NA
3,2,P24,C,processing,#FFFFFF,#6c2b88,image26,image269,NA,right,left,FALSE,973,NA,NA
3,2,P24,C,processing,#FFFFFF,#5f973f,image26,image324,NA,left,left,TRUE,947.0999999996275,NA,NA
3,2,P24,C,processing,#a04640,#FFFFFF,image93,image26,NA,right,right,TRUE,1434.2000000001863,NA,NA
3,2,P25,C,processing,#FFFFFF,#9f9f3c,image26,image71,NA,left,left,TRUE,716.9000000003725,NA,NA
3,2,P25,C,processing,#FFFFFF,#772c59,image26,image388,NA,right,right,TRUE,878.0999999996275,NA,NA
3,2,P25,C,processing,#4dac67,#FFFFFF,image216,image26,NA,left,left,TRUE,713.3000000007451,NA,NA
3,2,P25,C,processing,#FFFFFF,#15368a,image26,image59,NA,left,left,TRUE,798.2000000001863,NA,NA
3,2,1,C,memory-resp,#FFFFFF,#978826,image26,image314,NA,left,left,TRUE,1389.2999999998137,image314,image26
3,2,1,C,memory-resp,#FFFFFF,#307e4e,image26,image174,NA,right,right,TRUE,1345,image174,image174
3,2,1,C,memory-resp,#3c4872,#FFFFFF,image200,image26,NA,right,right,TRUE,1512,image200,image26
3,2,1,C,memory-resp,#981f8a,#FFFFFF,image12,image26,NA,right,right,TRUE,1158.4000000003725,image12,image26
3,2,1,C,retrieval,NA,NA,NA,NA,image174,NA,image200,FALSE,1440,image174,image26
3,2,1,C,retrieval,NA,NA,NA,NA,image200,NA,image174,FALSE,3962.300000000745,image200,image26
3,2,1,C,retrieval,NA,NA,NA,NA,image12,NA,image314,FALSE,1712.2999999998137,image12,image26
3,2,1,C,retrieval,NA,NA,NA,NA,image314,NA,image12,FALSE,595.1000000005588,image314,image26
3,2,2,C,memory-resp,#7fd813,#FFFFFF,image286,image26,NA,left,left,TRUE,1660.5,image286,image286
3,2,2,C,memory-resp,#20a78e,#FFFFFF,image321,image26,NA,left,left,TRUE,1064.4000000003725,image321,image321
3,2,2,C,memory-resp,#FFFFFF,#7d3136,image26,image37,NA,left,left,TRUE,1222.2000000001863,image37,image26
3,2,2,C,memory-resp,#7414b8,#FFFFFF,image7,image26,NA,right,right,TRUE,1310.7000000001863,image7,image26
3,2,2,C,retrieval,NA,NA,NA,NA,image286,NA,image286,TRUE,2133,image286,image286
3,2,2,C,retrieval,NA,NA,NA,NA,image37,NA,image37,TRUE,1797.2999999998137,image37,image286
3,2,2,C,retrieval,NA,NA,NA,NA,image321,NA,image321,TRUE,1947.2000000001863,image321,image286
3,2,2,C,retrieval,NA,NA,NA,NA,image7,NA,image7,TRUE,1646,image7,image286
3,2,3,C,memory-resp,#FFFFFF,#af0d4e,image26,image393,NA,right,right,TRUE,1491,image393,image393
3,2,3,C,memory-resp,#5b6d37,#FFFFFF,image416,image26,NA,left,left,TRUE,833.3000000007451,image416,image416
3,2,3,C,memory-resp,#FFFFFF,#4e29d1,image26,image57,NA,left,left,TRUE,975.4000000003725,image57,image26
3,2,3,C,memory-resp,#229b7b,#FFFFFF,image16,image26,NA,left,left,TRUE,1281.9000000003725,image16,image16
3,2,3,C,retrieval,NA,NA,NA,NA,image416,NA,image416,TRUE,3605.7999999998137,image416,image393
3,2,3,C,retrieval,NA,NA,NA,NA,image16,NA,image16,TRUE,1451.7000000001863,image16,image393
3,2,3,C,retrieval,NA,NA,NA,NA,image393,NA,image393,TRUE,2788.100000000559,image393,image393
3,2,3,C,retrieval,NA,NA,NA,NA,image57,NA,image57,TRUE,1862.2000000001863,image57,image393
3,2,4,C,memory-resp,#FFFFFF,#8737ae,image26,image32,NA,right,right,TRUE,836.2999999998137,image32,image32
3,2,4,C,memory-resp,#FFFFFF,#c73623,image26,image321,NA,right,right,TRUE,921.6000000005588,image321,image321
3,2,4,C,memory-resp,#0b9398,#FFFFFF,image416,image26,NA,left,left,TRUE,674.5,image416,image416
3,2,4,C,memory-resp,#FFFFFF,#5ce015,image26,image109,NA,left,left,TRUE,1025,image109,image26
3,2,4,C,retrieval,NA,NA,NA,NA,image32,NA,image32,TRUE,1491.0999999996275,image32,image32
3,2,4,C,retrieval,NA,NA,NA,NA,image321,NA,image109,FALSE,3558,image321,image32
3,2,4,C,retrieval,NA,NA,NA,NA,image109,NA,image109,TRUE,1863,image109,image32
3,2,4,C,retrieval,NA,NA,NA,NA,image416,NA,image416,TRUE,3649.7000000001863,image416,image32
3,2,5,C,memory-resp,#FFFFFF,#8f0f73,image26,image292,NA,left,left,TRUE,1349.0999999996275,image292,image26
3,2,5,C,memory-resp,#FFFFFF,#2d8b52,image26,image77,NA,right,left,FALSE,1220.699999999255,image77,image77
3,2,5,C,memory-resp,#FFFFFF,#928b2a,image26,image299,NA,right,right,TRUE,1535.1000000005588,image299,image299
3,2,5,C,memory-resp,#0e45dd,#FFFFFF,image117,image26,NA,right,right,TRUE,1339.3999999994412,image117,image26
3,2,5,C,retrieval,NA,NA,NA,NA,image77,NA,image388,FALSE,4115,image77,image26
3,2,5,C,retrieval,NA,NA,NA,NA,image292,NA,image77,FALSE,6190.0999999996275,image292,image26
3,2,5,C,retrieval,NA,NA,NA,NA,image299,NA,image299,TRUE,1518.5999999996275,image299,image26
3,2,5,C,retrieval,NA,NA,NA,NA,image117,NA,image117,TRUE,630.9000000003725,image117,image26
3,2,6,C,memory-resp,#267173,#FFFFFF,image178,image26,NA,left,left,TRUE,1226.300000000745,image178,image178
3,2,6,C,memory-resp,#542d7b,#FFFFFF,image410,image26,NA,right,right,TRUE,1620.2999999998137,image410,image26
3,2,6,C,memory-resp,#FFFFFF,#6e9546,image26,image269,NA,right,right,TRUE,1251.5999999996275,image269,image269
3,2,6,C,memory-resp,#703533,#FFFFFF,image199,image26,NA,right,right,TRUE,1429.9000000003725,image199,image26
3,2,6,C,retrieval,NA,NA,NA,NA,image269,NA,image269,TRUE,1662.0999999996275,image269,image178
3,2,6,C,retrieval,NA,NA,NA,NA,image178,NA,image199,FALSE,6418.200000000186,image178,image178
3,2,6,C,retrieval,NA,NA,NA,NA,image410,NA,image269,FALSE,4081.5,image410,image178
3,2,6,C,retrieval,NA,NA,NA,NA,image199,NA,image199,TRUE,1565.4000000003725,image199,image178
3,2,7,C,memory-resp,#2ca314,#FFFFFF,image313,image26,NA,right,right,TRUE,1111.7999999998137,image313,image26
3,2,7,C,memory-resp,#FFFFFF,#316f90,image26,image176,NA,right,right,TRUE,1133.9000000003725,image176,image176
3,2,7,C,memory-resp,#FFFFFF,#b24915,image26,image346,NA,right,right,TRUE,1524.7000000001863,image346,image346
3,2,7,C,memory-resp,#FFFFFF,#9023b8,image26,image264,NA,left,left,TRUE,1276.4000000003725,image264,image26
3,2,7,C,retrieval,NA,NA,NA,NA,image313,NA,image313,TRUE,6624.299999999814,image313,image26
3,2,7,C,retrieval,NA,NA,NA,NA,image346,NA,image346,TRUE,3636.0999999996275,image346,image26
3,2,7,C,retrieval,NA,NA,NA,NA,image176,NA,image176,TRUE,2272.0999999996275,image176,image26
3,2,7,C,retrieval,NA,NA,NA,NA,image264,NA,image264,TRUE,1636.5,image264,image26
3,2,8,C,memory-resp,#21d492,#FFFFFF,image209,image26,NA,right,right,TRUE,1167,image209,image26
3,2,8,C,memory-resp,#84d719,#FFFFFF,image220,image26,NA,right,right,TRUE,2057.0999999996275,image220,image26
3,2,8,C,memory-resp,#2e1d81,#FFFFFF,image385,image26,NA,left,left,TRUE,1546.5999999996275,image385,image385
3,2,8,C,memory-resp,#FFFFFF,#753345,image26,image66,NA,right,right,TRUE,2316.2000000001863,image66,image66
3,2,8,C,retrieval,NA,NA,NA,NA,image220,NA,image220,TRUE,4004.2000000001863,image220,image26
3,2,8,C,retrieval,NA,NA,NA,NA,image209,NA,image209,TRUE,5954.200000000186,image209,image26
3,2,8,C,retrieval,NA,NA,NA,NA,image385,NA,image66,FALSE,1262.5999999996275,image385,image26
3,2,8,C,retrieval,NA,NA,NA,NA,image66,NA,image385,FALSE,1703.2000000001863,image66,image26
3,2,9,C,memory-resp,#FFFFFF,#47ae62,image26,image338,NA,left,left,TRUE,1502.4000000003725,image338,image26
3,2,9,C,memory-resp,#FFFFFF,#1470d2,image26,image195,NA,right,right,TRUE,1248.9000000003725,image195,image195
3,2,9,C,memory-resp,#cc7919,#FFFFFF,image123,image26,NA,right,right,TRUE,1589.3999999994412,image123,image26
3,2,9,C,memory-resp,#FFFFFF,#b526ab,image26,image119,NA,left,NULL,FALSE,NA,image119,image26
3,2,9,C,retrieval,NA,NA,NA,NA,image119,NA,image119,TRUE,1193.5,image119,image26
3,2,9,C,retrieval,NA,NA,NA,NA,image338,NA,image338,TRUE,3328.899999999441,image338,image26
3,2,9,C,retrieval,NA,NA,NA,NA,image195,NA,image195,TRUE,2151.2999999998137,image195,image26
3,2,9,C,retrieval,NA,NA,NA,NA,image123,NA,image123,TRUE,590.5,image123,image26
3,2,10,C,memory-resp,#9932b3,#FFFFFF,image79,image26,NA,left,left,TRUE,1395.2000000001863,image79,image79
3,2,10,C,memory-resp,#50a121,#FFFFFF,image1,image26,NA,right,right,TRUE,2300.7000000001863,image1,image26
3,2,10,C,memory-resp,#FFFFFF,#355873,image26,image112,NA,left,left,TRUE,1208,image112,image26
3,2,10,C,memory-resp,#FFFFFF,#d16729,image26,image50,NA,left,left,TRUE,877,image50,image26
3,2,10,C,retrieval,NA,NA,NA,NA,image79,NA,image79,TRUE,2897.4000000003725,image79,image79
3,2,10,C,retrieval,NA,NA,NA,NA,image50,NA,image50,TRUE,1321.8999999994412,image50,image79
3,2,10,C,retrieval,NA,NA,NA,NA,image112,NA,image112,TRUE,1765.199999999255,image112,image79
3,2,10,C,retrieval,NA,NA,NA,NA,image1,NA,image1,TRUE,1550,image1,image79
3,2,11,C,memory-resp,#6b4638,#FFFFFF,image385,image26,NA,left,left,TRUE,1383.0999999996275,image385,image385
3,2,11,C,memory-resp,#19809a,#FFFFFF,image160,image26,NA,right,right,TRUE,1125.7999999998137,image160,image26
3,2,11,C,memory-resp,#3d6d36,#FFFFFF,image115,image26,NA,right,right,TRUE,1757,image115,image26
3,2,11,C,memory-resp,#FFFFFF,#6e0aa3,image26,image410,NA,left,left,TRUE,1446.3999999994412,image410,image26
3,2,11,C,retrieval,NA,NA,NA,NA,image160,NA,image160,TRUE,1561.0999999996275,image160,image385
3,2,11,C,retrieval,NA,NA,NA,NA,image410,NA,image410,TRUE,1397.2000000001863,image410,image385
3,2,11,C,retrieval,NA,NA,NA,NA,image115,NA,image115,TRUE,792,image115,image385
3,2,11,C,retrieval,NA,NA,NA,NA,image385,NA,image385,TRUE,2433.199999999255,image385,image385
3,2,12,C,memory-resp,#FFFFFF,#4b62a0,image26,image405,NA,left,left,TRUE,1647.2999999998137,image405,image26
3,2,12,C,memory-resp,#7e2881,#FFFFFF,image76,image26,NA,right,right,TRUE,953.1000000005588,image76,image26
3,2,12,C,memory-resp,#37be40,#FFFFFF,image66,image26,NA,left,left,TRUE,1150.2000000001863,image66,image66
3,2,12,C,memory-resp,#9a811d,#FFFFFF,image91,image26,NA,left,left,TRUE,740.0999999996275,image91,image91
3,2,12,C,retrieval,NA,NA,NA,NA,image405,NA,image76,FALSE,1893.199999999255,image405,image26
3,2,12,C,retrieval,NA,NA,NA,NA,image66,NA,image66,TRUE,2872.7999999998137,image66,image26
3,2,12,C,retrieval,NA,NA,NA,NA,image76,NA,image405,FALSE,4754.4000000003725,image76,image26
3,2,12,C,retrieval,NA,NA,NA,NA,image91,NA,image91,TRUE,791.5999999996275,image91,image26
3,2,13,C,memory-resp,#FFFFFF,#b60c97,image26,image72,NA,left,left,TRUE,1070.5,image72,image26
3,2,13,C,memory-resp,#43b659,#FFFFFF,image220,image26,NA,right,right,TRUE,1122.0999999996275,image220,image26
3,2,13,C,memory-resp,#FFFFFF,#c6970c,image26,image215,NA,right,right,TRUE,1173.8999999994412,image215,image215
3,2,13,C,memory-resp,#FFFFFF,#0a3ab2,image26,image128,NA,left,left,TRUE,1209.6000000005588,image128,image26
3,2,13,C,retrieval,NA,NA,NA,NA,image220,NA,image220,TRUE,3396.5999999996275,image220,image26
3,2,13,C,retrieval,NA,NA,NA,NA,image215,NA,image215,TRUE,1217.4000000003725,image215,image26
3,2,13,C,retrieval,NA,NA,NA,NA,image128,NA,image128,TRUE,1112.7999999998137,image128,image26
3,2,13,C,retrieval,NA,NA,NA,NA,image72,NA,image72,TRUE,1626.2999999998137,image72,image26
3,2,14,C,memory-resp,#bebb19,#FFFFFF,image392,image26,NA,left,left,TRUE,1163.3999999994412,image392,image392
3,2,14,C,memory-resp,#153289,#FFFFFF,image236,image26,NA,right,right,TRUE,1139,image236,image26
3,2,14,C,memory-resp,#FFFFFF,#20c565,image26,image393,NA,right,right,TRUE,1329,image393,image393
3,2,14,C,memory-resp,#8f1962,#FFFFFF,image260,image26,NA,left,left,TRUE,803.5,image260,image260
3,2,14,C,retrieval,NA,NA,NA,NA,image236,NA,image393,FALSE,1752,image236,image392
3,2,14,C,retrieval,NA,NA,NA,NA,image393,NA,image236,FALSE,3253.600000000559,image393,image392
3,2,14,C,retrieval,NA,NA,NA,NA,image392,NA,image236,FALSE,2800.7999999998137,image392,image392
3,2,14,C,retrieval,NA,NA,NA,NA,image260,NA,image260,TRUE,655.3000000007451,image260,image392
3,2,15,C,memory-resp,#90943d,#FFFFFF,image356,image26,NA,right,right,TRUE,971.4000000003725,image356,image26
3,2,15,C,memory-resp,#FFFFFF,#338a7b,image26,image86,NA,left,left,TRUE,1582,image86,image26
3,2,15,C,memory-resp,#FFFFFF,#b3324a,image26,image92,NA,left,left,TRUE,1987.9000000003725,image92,image26
3,2,15,C,memory-resp,#3518a0,#FFFFFF,image239,image26,NA,right,right,TRUE,1763.800000000745,image239,image26
3,2,15,C,retrieval,NA,NA,NA,NA,image239,NA,image239,TRUE,1890.2999999998137,image239,image26
3,2,15,C,retrieval,NA,NA,NA,NA,image86,NA,image86,TRUE,3541.399999999441,image86,image26
3,2,15,C,retrieval,NA,NA,NA,NA,image356,NA,image356,TRUE,6019.899999999441,image356,image26
3,2,15,C,retrieval,NA,NA,NA,NA,image92,NA,image92,TRUE,988.7999999998137,image92,image26
3,3,1,A,memory-resp,#3f7d97,#FFFFFF,image226,image26,NA,left,NULL,FALSE,NA,image226,image226
3,3,1,A,memory-resp,#FFFFFF,#6f1490,image26,image52,NA,right,NULL,FALSE,NA,image52,image52
3,3,1,A,memory-resp,#FFFFFF,#81a257,image26,image230,NA,right,NULL,FALSE,NA,image230,image230
3,3,1,A,memory-resp,#FFFFFF,#e01013,image26,image320,NA,right,NULL,FALSE,NA,image320,image320
3,3,1,A,retrieval,NA,NA,NA,NA,image320,NA,image320,TRUE,1463.7000000001863,image320,image226
3,3,1,A,retrieval,NA,NA,NA,NA,image226,NA,image226,TRUE,2814.2999999998137,image226,image226
3,3,1,A,retrieval,NA,NA,NA,NA,image52,NA,image52,TRUE,1217.9000000003725,image52,image226
3,3,1,A,retrieval,NA,NA,NA,NA,image230,NA,image230,TRUE,2055.2999999998137,image230,image226
3,3,2,A,memory-resp,#FFFFFF,#419b5d,image26,image353,NA,left,NULL,FALSE,NA,image353,image26
3,3,2,A,memory-resp,#91831d,#FFFFFF,image286,image26,NA,left,NULL,FALSE,NA,image286,image286
3,3,2,A,memory-resp,#1b2eac,#FFFFFF,image292,image26,NA,right,NULL,FALSE,NA,image292,image26
3,3,2,A,memory-resp,#FFFFFF,#7e205d,image26,image392,NA,right,NULL,FALSE,NA,image392,image392
3,3,2,A,retrieval,NA,NA,NA,NA,image392,NA,image392,TRUE,918.5,image392,image26
3,3,2,A,retrieval,NA,NA,NA,NA,image353,NA,image292,FALSE,4023.7999999998137,image353,image26
3,3,2,A,retrieval,NA,NA,NA,NA,image286,NA,image286,TRUE,3242.9000000003725,image286,image26
3,3,2,A,retrieval,NA,NA,NA,NA,image292,NA,image292,TRUE,1056.1000000005588,image292,image26
3,3,3,A,memory-resp,#b6c926,#FFFFFF,image363,image26,NA,right,NULL,FALSE,NA,image363,image26
3,3,3,A,memory-resp,#2ecc9c,#FFFFFF,image34,image26,NA,left,NULL,FALSE,NA,image34,image34
3,3,3,A,memory-resp,#38208d,#FFFFFF,image236,image26,NA,right,NULL,FALSE,NA,image236,image26
3,3,3,A,memory-resp,#FFFFFF,#832a4b,image26,image395,NA,left,NULL,FALSE,NA,image395,image26
3,3,3,A,retrieval,NA,NA,NA,NA,image363,NA,image236,FALSE,3762.5,image363,image26
3,3,3,A,retrieval,NA,NA,NA,NA,image395,NA,image395,TRUE,3387,image395,image26
3,3,3,A,retrieval,NA,NA,NA,NA,image236,NA,image101,FALSE,4272,image236,image26
3,3,3,A,retrieval,NA,NA,NA,NA,image34,NA,image34,TRUE,971.2999999998137,image34,image26
3,3,4,A,memory-resp,#FFFFFF,#4334a8,image26,image327,NA,left,NULL,FALSE,NA,image327,image26
3,3,4,A,memory-resp,#879414,#FFFFFF,image351,image26,NA,left,NULL,FALSE,NA,image351,image351
3,3,4,A,memory-resp,#1d8b6c,#FFFFFF,image294,image26,NA,right,NULL,FALSE,NA,image294,image26
3,3,4,A,memory-resp,#673247,#FFFFFF,image247,image26,NA,left,NULL,FALSE,NA,image247,image247
3,3,4,A,retrieval,NA,NA,NA,NA,image351,NA,image294,FALSE,1469.9000000003725,image351,image26
3,3,4,A,retrieval,NA,NA,NA,NA,image294,NA,image294,TRUE,7112.100000000559,image294,image26
3,3,4,A,retrieval,NA,NA,NA,NA,image327,NA,image327,TRUE,1401,image327,image26
3,3,4,A,retrieval,NA,NA,NA,NA,image247,NA,image247,TRUE,1641.3999999994412,image247,image26
3,3,5,A,memory-resp,#52a216,#FFFFFF,image397,image26,NA,right,NULL,FALSE,NA,image397,image26
3,3,5,A,memory-resp,#6b1c8d,#FFFFFF,image40,image26,NA,left,NULL,FALSE,NA,image40,image40
3,3,5,A,memory-resp,#FFFFFF,#863728,image26,image419,NA,right,NULL,FALSE,NA,image419,image419
3,3,5,A,memory-resp,#098790,#FFFFFF,image79,image26,NA,left,NULL,FALSE,NA,image79,image79
3,3,5,A,retrieval,NA,NA,NA,NA,image419,NA,image419,TRUE,1975.2000000001863,image419,image26
3,3,5,A,retrieval,NA,NA,NA,NA,image397,NA,image40,FALSE,3027.5999999996275,image397,image26
3,3,5,A,retrieval,NA,NA,NA,NA,image79,NA,image79,TRUE,1137.2000000001863,image79,image26
3,3,5,A,retrieval,NA,NA,NA,NA,image40,NA,image397,FALSE,511,image40,image26
3,3,6,A,memory-resp,#5b3dbd,#FFFFFF,image273,image26,NA,left,NULL,FALSE,NA,image273,image273
3,3,6,A,memory-resp,#FFFFFF,#89b01c,image26,image40,NA,right,NULL,FALSE,NA,image40,image40
3,3,6,A,memory-resp,#FFFFFF,#a94755,image26,image20,NA,left,NULL,FALSE,NA,image20,image26
3,3,6,A,memory-resp,#FFFFFF,#16bb95,image26,image92,NA,left,NULL,FALSE,NA,image92,image26
3,3,6,A,retrieval,NA,NA,NA,NA,image40,NA,image40,TRUE,1712.4000000003725,image40,image273
3,3,6,A,retrieval,NA,NA,NA,NA,image92,NA,image92,TRUE,1742.4000000003725,image92,image273
3,3,6,A,retrieval,NA,NA,NA,NA,image20,NA,image20,TRUE,1947.9000000003725,image20,image273
3,3,6,A,retrieval,NA,NA,NA,NA,image273,NA,image273,TRUE,2590.9000000003725,image273,image273
3,3,7,A,memory-resp,#287c8f,#FFFFFF,image89,image26,NA,right,NULL,FALSE,NA,image89,image26
3,3,7,A,memory-resp,#8122aa,#FFFFFF,image178,image26,NA,left,NULL,FALSE,NA,image178,image178
3,3,7,A,memory-resp,#7c4641,#FFFFFF,image341,image26,NA,right,NULL,FALSE,NA,image341,image26
3,3,7,A,memory-resp,#51c110,#FFFFFF,image168,image26,NA,right,NULL,FALSE,NA,image168,image26
3,3,7,A,retrieval,NA,NA,NA,NA,image178,NA,image89,FALSE,4478.4000000003725,image178,image26
3,3,7,A,retrieval,NA,NA,NA,NA,image89,NA,image89,TRUE,1392.9000000003725,image89,image26
3,3,7,A,retrieval,NA,NA,NA,NA,image341,NA,image341,TRUE,1144.2000000001863,image341,image26
3,3,7,A,retrieval,NA,NA,NA,NA,image168,NA,image168,TRUE,1594.2999999998137,image168,image26
3,3,8,A,memory-resp,#FFFFFF,#34ad8a,image26,image138,NA,left,NULL,FALSE,NA,image138,image26
3,3,8,A,memory-resp,#677637,#FFFFFF,image209,image26,NA,right,NULL,FALSE,NA,image209,image26
3,3,8,A,memory-resp,#FFFFFF,#e70d44,image26,image40,NA,right,NULL,FALSE,NA,image40,image40
3,3,8,A,memory-resp,#181be2,#FFFFFF,image100,image26,NA,right,NULL,FALSE,NA,image100,image26
3,3,8,A,retrieval,NA,NA,NA,NA,image138,NA,image138,TRUE,5290.4000000003725,image138,image26
3,3,8,A,retrieval,NA,NA,NA,NA,image40,NA,image40,TRUE,1062.5999999996275,image40,image26
3,3,8,A,retrieval,NA,NA,NA,NA,image209,NA,image209,TRUE,1238.0999999996275,image209,image26
3,3,8,A,retrieval,NA,NA,NA,NA,image100,NA,image100,TRUE,814.0999999996275,image100,image26
3,3,9,A,memory-resp,#b9a21d,#FFFFFF,image198,image26,NA,right,NULL,FALSE,NA,image198,image26
3,3,9,A,memory-resp,#FFFFFF,#95467c,image26,image112,NA,left,NULL,FALSE,NA,image112,image26
3,3,9,A,memory-resp,#FFFFFF,#27247f,image26,image424,NA,right,NULL,FALSE,NA,image424,image424
3,3,9,A,memory-resp,#1d955d,#FFFFFF,image147,image26,NA,right,NULL,FALSE,NA,image147,image26
3,3,9,A,retrieval,NA,NA,NA,NA,image147,NA,image147,TRUE,1602.3999999994412,image147,image26
3,3,9,A,retrieval,NA,NA,NA,NA,image424,NA,image424,TRUE,3914.2000000001863,image424,image26
3,3,9,A,retrieval,NA,NA,NA,NA,image112,NA,image112,TRUE,1927.4000000003725,image112,image26
3,3,9,A,retrieval,NA,NA,NA,NA,image198,NA,image198,TRUE,4756.0999999996275,image198,image26
3,3,10,A,memory-resp,#FFFFFF,#2210ea,image26,image198,NA,left,NULL,FALSE,NA,image198,image26
3,3,10,A,memory-resp,#22a559,#FFFFFF,image35,image26,NA,left,NULL,FALSE,NA,image35,image35
3,3,10,A,memory-resp,#FFFFFF,#7a8519,image26,image294,NA,left,NULL,FALSE,NA,image294,image26
3,3,10,A,memory-resp,#964077,#FFFFFF,image286,image26,NA,left,NULL,FALSE,NA,image286,image286
3,3,10,A,retrieval,NA,NA,NA,NA,image286,NA,image286,TRUE,1218.7000000001863,image286,image26
3,3,10,A,retrieval,NA,NA,NA,NA,image198,NA,image198,TRUE,2370.899999999441,image198,image26
3,3,10,A,retrieval,NA,NA,NA,NA,image294,NA,image35,FALSE,1426.5,image294,image26
3,3,10,A,retrieval,NA,NA,NA,NA,image35,NA,image35,TRUE,3057.0999999996275,image35,image26
3,3,11,A,memory-resp,#FFFFFF,#3b3168,image26,image286,NA,right,NULL,FALSE,NA,image286,image286
3,3,11,A,memory-resp,#873b56,#FFFFFF,image16,image26,NA,left,NULL,FALSE,NA,image16,image16
3,3,11,A,memory-resp,#12a585,#FFFFFF,image279,image26,NA,left,NULL,FALSE,NA,image279,image279
3,3,11,A,memory-resp,#85b323,#FFFFFF,image263,image26,NA,right,NULL,FALSE,NA,image263,image26
3,3,11,A,retrieval,NA,NA,NA,NA,image286,NA,image286,TRUE,3032.5,image286,image286
3,3,11,A,retrieval,NA,NA,NA,NA,image16,NA,image16,TRUE,1598.1000000005588,image16,image286
3,3,11,A,retrieval,NA,NA,NA,NA,image279,NA,image279,TRUE,3255.9000000003725,image279,image286
3,3,11,A,retrieval,NA,NA,NA,NA,image263,NA,image263,TRUE,536.9000000003725,image263,image286
3,3,12,A,memory-resp,#FFFFFF,#8e5c33,image26,image47,NA,left,NULL,FALSE,NA,image47,image26
3,3,12,A,memory-resp,#167bb1,#FFFFFF,image284,image26,NA,left,NULL,FALSE,NA,image284,image284
3,3,12,A,memory-resp,#4fa428,#FFFFFF,image15,image26,NA,right,NULL,FALSE,NA,image15,image26
3,3,12,A,memory-resp,#762097,#FFFFFF,image419,image26,NA,left,NULL,FALSE,NA,image419,image419
3,3,12,A,retrieval,NA,NA,NA,NA,image15,NA,image15,TRUE,2011.7000000001863,image15,image26
3,3,12,A,retrieval,NA,NA,NA,NA,image47,NA,image419,FALSE,5041.200000000186,image47,image26
3,3,12,A,retrieval,NA,NA,NA,NA,image419,NA,image419,TRUE,4489.4000000003725,image419,image26
3,3,12,A,retrieval,NA,NA,NA,NA,image284,NA,image47,FALSE,2325.2000000001863,image284,image26
3,3,13,A,memory-resp,#FFFFFF,#682a6f,image26,image173,NA,right,NULL,FALSE,NA,image173,image173
3,3,13,A,memory-resp,#1e66a9,#FFFFFF,image235,image26,NA,right,NULL,FALSE,NA,image235,image26
3,3,13,A,memory-resp,#FFFFFF,#4a8b41,image26,image276,NA,right,NULL,FALSE,NA,image276,image276
3,3,13,A,memory-resp,#FFFFFF,#b07221,image26,image119,NA,left,NULL,FALSE,NA,image119,image26
3,3,13,A,retrieval,NA,NA,NA,NA,image235,NA,image173,FALSE,1675.9000000003725,image235,image173
3,3,13,A,retrieval,NA,NA,NA,NA,image119,NA,image119,TRUE,1154.2000000001863,image119,image173
3,3,13,A,retrieval,NA,NA,NA,NA,image276,NA,image276,TRUE,2157.7000000001863,image276,image173
3,3,13,A,retrieval,NA,NA,NA,NA,image173,NA,image235,FALSE,2050.399999999441,image173,image173
3,3,14,A,memory-resp,#FFFFFF,#a43739,image26,image350,NA,left,NULL,FALSE,NA,image350,image26
3,3,14,A,memory-resp,#22a091,#FFFFFF,image315,image26,NA,right,NULL,FALSE,NA,image315,image26
3,3,14,A,memory-resp,#4e3285,#FFFFFF,image125,image26,NA,right,NULL,FALSE,NA,image125,image26
3,3,14,A,memory-resp,#afc832,#FFFFFF,image292,image26,NA,right,NULL,FALSE,NA,image292,image26
3,3,14,A,retrieval,NA,NA,NA,NA,image315,NA,image315,TRUE,3118.4000000003725,image315,image26
3,3,14,A,retrieval,NA,NA,NA,NA,image292,NA,image292,TRUE,1582.7000000001863,image292,image26
3,3,14,A,retrieval,NA,NA,NA,NA,image125,NA,image350,FALSE,3972.600000000559,image125,image26
3,3,14,A,retrieval,NA,NA,NA,NA,image350,NA,image315,FALSE,5626.300000000745,image350,image26
3,3,15,A,memory-resp,#0e3aaa,#FFFFFF,image313,image26,NA,right,NULL,FALSE,NA,image313,image26
3,3,15,A,memory-resp,#7e6f3e,#FFFFFF,image163,image26,NA,right,NULL,FALSE,NA,image163,image26
3,3,15,A,memory-resp,#8f4d81,#FFFFFF,image92,image26,NA,right,NULL,FALSE,NA,image92,image26
3,3,15,A,memory-resp,#FFFFFF,#346f48,image26,image295,NA,left,NULL,FALSE,NA,image295,image26
3,3,15,A,retrieval,NA,NA,NA,NA,image295,NA,image295,TRUE,2801.5999999996275,image295,image26
3,3,15,A,retrieval,NA,NA,NA,NA,image92,NA,image163,FALSE,2874.7000000001863,image92,image26
3,3,15,A,retrieval,NA,NA,NA,NA,image163,NA,image92,FALSE,2179.5,image163,image26
3,3,15,A,retrieval,NA,NA,NA,NA,image313,NA,image313,TRUE,2421.9000000003725,image313,image26
3,4,P1,D,processing,#0b128e,#FFFFFF,image228,image371,NA,left,left,TRUE,1402.2000000001863,NA,NA
3,4,P1,D,processing,#823a70,#FFFFFF,image35,image424,NA,left,left,TRUE,1226.1000000005588,NA,NA
3,4,P1,D,processing,#9f8538,#FFFFFF,image388,image294,NA,left,left,TRUE,1483.5,NA,NA
3,4,P1,D,processing,#1fa853,#FFFFFF,image160,image403,NA,right,right,TRUE,1061.800000000745,NA,NA
3,4,P2,D,processing,#25359d,#FFFFFF,image21,image163,NA,left,left,TRUE,990.8000000007451,NA,NA
3,4,P2,D,processing,#7a7038,#FFFFFF,image324,image346,NA,right,right,TRUE,1142.3999999994412,NA,NA
3,4,P2,D,processing,#10c674,#FFFFFF,image351,image431,NA,left,left,TRUE,1094.300000000745,NA,NA
3,4,P2,D,processing,#8a336d,#FFFFFF,image347,image185,NA,left,left,TRUE,873,NA,NA
3,4,P3,D,processing,#54338a,#FFFFFF,image223,image238,NA,left,left,TRUE,1632.300000000745,NA,NA
3,4,P3,D,processing,#b01137,#FFFFFF,image248,image362,NA,left,left,TRUE,1177.800000000745,NA,NA
3,4,P3,D,processing,#88b43c,#FFFFFF,image341,image35,NA,right,right,TRUE,1069.9000000003725,NA,NA
3,4,P3,D,processing,#37a0a0,#FFFFFF,image328,image425,NA,right,left,FALSE,1675.4000000003725,NA,NA
3,4,P4,D,processing,#80593c,#FFFFFF,image325,image259,NA,left,left,TRUE,2079.5999999996275,NA,NA
3,4,P4,D,processing,#24657b,#FFFFFF,image394,image382,NA,right,right,TRUE,1084.1000000005588,NA,NA
3,4,P4,D,processing,#9c0fc7,#FFFFFF,image351,image86,NA,left,left,TRUE,1355.800000000745,NA,NA
3,4,P4,D,processing,#41bf3b,#FFFFFF,image201,image226,NA,right,left,FALSE,966.4000000003725,NA,NA
3,4,P5,D,processing,#278263,#FFFFFF,image308,image225,NA,right,right,TRUE,1039.2000000001863,NA,NA
3,4,P5,D,processing,#b91d47,#FFFFFF,image297,image35,NA,right,right,TRUE,975.1000000005588,NA,NA
3,4,P5,D,processing,#230b8e,#FFFFFF,image148,image279,NA,right,right,TRUE,806.2000000001863,NA,NA
3,4,P5,D,processing,#708f24,#FFFFFF,image217,image396,NA,right,right,TRUE,1487.9000000003725,NA,NA
3,4,P6,D,processing,#1d8655,#FFFFFF,image409,image58,NA,left,left,TRUE,1306.2000000001863,NA,NA
3,4,P6,D,processing,#272eb4,#FFFFFF,image250,image217,NA,left,left,TRUE,1057.4000000003725,NA,NA
3,4,P6,D,processing,#9d0b37,#FFFFFF,image265,image8,NA,right,right,TRUE,1258.7000000001863,NA,NA
3,4,P6,D,processing,#839a28,#FFFFFF,image38,image426,NA,right,right,TRUE,1027.5999999996275,NA,NA
3,4,P7,D,processing,#d25a1e,#FFFFFF,image168,image186,NA,right,left,FALSE,1545.8999999994412,NA,NA
3,4,P7,D,processing,#45911d,#FFFFFF,image60,image45,NA,left,left,TRUE,975.1000000005588,NA,NA
3,4,P7,D,processing,#a531b9,#FFFFFF,image233,image79,NA,right,right,TRUE,2005,NA,NA
3,4,P7,D,processing,#108fc1,#FFFFFF,image72,image151,NA,right,right,TRUE,843.6000000005588,NA,NA
3,4,P8,D,processing,#52ca12,#FFFFFF,image177,image420,NA,right,right,TRUE,1533.6000000005588,NA,NA
3,4,P8,D,processing,#7d3795,#FFFFFF,image377,image59,NA,left,left,TRUE,977.8000000007451,NA,NA
3,4,P8,D,processing,#358492,#FFFFFF,image96,image232,NA,right,right,TRUE,886.9000000003725,NA,NA
3,4,P8,D,processing,#da161c,#FFFFFF,image149,image60,NA,right,right,TRUE,1241.7999999998137,NA,NA
3,4,P9,D,processing,#b23842,#FFFFFF,image431,image189,NA,right,right,TRUE,778.8000000007451,NA,NA
3,4,P9,D,processing,#86ab49,#FFFFFF,image140,image64,NA,right,right,TRUE,1083.4000000003725,NA,NA
3,4,P9,D,processing,#3d2287,#FFFFFF,image317,image428,NA,right,right,TRUE,1514.1000000005588,NA,NA
3,4,P9,D,processing,#15c6bb,#FFFFFF,image54,image388,NA,right,right,TRUE,911.9000000003725,NA,NA
3,4,P10,D,processing,#b5941c,#FFFFFF,image320,image334,NA,left,left,TRUE,1365.1000000005588,NA,NA
3,4,P10,D,processing,#2aac62,#FFFFFF,image306,image73,NA,left,left,TRUE,679.9000000003725,NA,NA
3,4,P10,D,processing,#3e63b1,#FFFFFF,image302,image286,NA,right,right,TRUE,919.3000000007451,NA,NA
3,4,P10,D,processing,#8c1253,#FFFFFF,image425,image142,NA,left,left,TRUE,850.5999999996275,NA,NA
3,4,P11,D,processing,#28658a,#FFFFFF,image82,image323,NA,left,left,TRUE,1105.4000000003725,NA,NA
3,4,P11,D,processing,#981689,#FFFFFF,image229,image20,NA,left,left,TRUE,1194,NA,NA
3,4,P11,D,processing,#2b912d,#FFFFFF,image129,image230,NA,right,right,TRUE,915.2999999998137,NA,NA
3,4,P11,D,processing,#8c6a3b,#FFFFFF,image240,image331,NA,left,left,TRUE,1277.2999999998137,NA,NA
3,4,P12,D,processing,#b531bf,#FFFFFF,image292,image403,NA,right,right,TRUE,863.1999999992549,NA,NA
3,4,P12,D,processing,#389b27,#FFFFFF,image263,image24,NA,right,right,TRUE,1418.4000000003725,NA,NA
3,4,P12,D,processing,#3f6188,#FFFFFF,image3,image73,NA,left,left,TRUE,1281.9000000003725,NA,NA
3,4,P12,D,processing,#7c592d,#FFFFFF,image21,image370,NA,right,right,TRUE,1745.7000000001863,NA,NA
3,4,P13,D,processing,#27826c,#FFFFFF,image330,image380,NA,left,left,TRUE,1005.9000000003725,NA,NA
3,4,P13,D,processing,#903141,#FFFFFF,image93,image279,NA,right,right,TRUE,958.7999999998137,NA,NA
3,4,P13,D,processing,#8ba63a,#FFFFFF,image253,image3,NA,left,left,TRUE,759.2000000001863,NA,NA
3,4,P13,D,processing,#521881,#FFFFFF,image147,image215,NA,right,right,TRUE,850.7000000001863,NA,NA
3,4,P14,D,processing,#4f9c65,#FFFFFF,image77,image259,NA,left,left,TRUE,978,NA,NA
3,4,P14,D,processing,#a9ae4c,#FFFFFF,image233,image384,NA,right,right,TRUE,796.8999999994412,NA,NA
3,4,P14,D,processing,#163ada,#FFFFFF,image130,image288,NA,left,left,TRUE,908.3000000007451,NA,NA
3,4,P14,D,processing,#6d315d,#FFFFFF,image234,image81,NA,left,left,TRUE,1607,NA,NA
3,4,P15,D,processing,#379542,#FFFFFF,image370,image234,NA,left,left,TRUE,1048.4000000003725,NA,NA
3,4,P15,D,processing,#a39033,#FFFFFF,image324,image230,NA,right,right,TRUE,1201.2999999998137,NA,NA
3,4,P15,D,processing,#822b6b,#FFFFFF,image89,image176,NA,right,right,TRUE,732.0999999996275,NA,NA
3,4,P15,D,processing,#3f5b88,#FFFFFF,image151,image195,NA,right,right,TRUE,996.0999999996275,NA,NA
3,4,P16,D,processing,#43a84d,#FFFFFF,image388,image294,NA,left,left,TRUE,1479.7999999998137,NA,NA
3,4,P16,D,processing,#9f1980,#FFFFFF,image168,image384,NA,right,right,TRUE,740.7999999998137,NA,NA
3,4,P16,D,processing,#968136,#FFFFFF,image78,image93,NA,left,left,TRUE,891.5,NA,NA
3,4,P16,D,processing,#1b6eda,#FFFFFF,image208,image147,NA,left,left,TRUE,1101.2999999998137,NA,NA
3,4,P17,D,processing,#7a19b3,#FFFFFF,image7,image380,NA,right,right,TRUE,1987.7000000001863,NA,NA
3,4,P17,D,processing,#5aa02c,#FFFFFF,image132,image59,NA,left,left,TRUE,1202.2000000001863,NA,NA
3,4,P17,D,processing,#4798ae,#FFFFFF,image305,image244,NA,right,right,TRUE,897.2999999998137,NA,NA
3,4,P17,D,processing,#802b1e,#FFFFFF,image60,image208,NA,left,left,TRUE,695.7000000001863,NA,NA
3,4,P18,D,processing,#872617,#FFFFFF,image247,image308,NA,left,left,TRUE,769.3999999994412,NA,NA
3,4,P18,D,processing,#3eac16,#FFFFFF,image147,image253,NA,right,right,TRUE,1119.2000000001863,NA,NA
3,4,P18,D,processing,#9b38c2,#FFFFFF,image13,image187,NA,right,right,TRUE,822.4000000003725,NA,NA
3,4,P18,D,processing,#119ec5,#FFFFFF,image381,image288,NA,right,left,FALSE,1120.2000000001863,NA,NA
3,4,P19,D,processing,#27278b,#FFFFFF,image147,image108,NA,right,right,TRUE,937.8999999994412,NA,NA
3,4,P19,D,processing,#a6a834,#FFFFFF,image119,image3,NA,right,right,TRUE,1399.0999999996275,NA,NA
3,4,P19,D,processing,#d01170,#FFFFFF,image347,image315,NA,left,left,TRUE,766.6000000005588,NA,NA
3,4,P19,D,processing,#447e53,#FFFFFF,image346,image29,NA,left,left,TRUE,746.7000000001863,NA,NA
3,4,P20,D,processing,#267d42,#FFFFFF,image140,image273,NA,right,right,TRUE,812.4000000003725,NA,NA
3,4,P20,D,processing,#836f16,#FFFFFF,image202,image362,NA,right,right,TRUE,743.2000000001863,NA,NA
3,4,P20,D,processing,#a11b7b,#FFFFFF,image161,image187,NA,right,right,TRUE,1804.5,NA,NA
3,4,P20,D,processing,#0c43cf,#FFFFFF,image333,image72,NA,left,left,TRUE,1000.4000000003725,NA,NA
3,4,P21,D,processing,#3f19be,#FFFFFF,image154,image392,NA,right,right,TRUE,1297,NA,NA
3,4,P21,D,processing,#af2c56,#FFFFFF,image201,image350,NA,left,left,TRUE,880.3999999994412,NA,NA
3,4,P21,D,processing,#83ad10,#FFFFFF,image164,image330,NA,right,right,TRUE,652.8999999994412,NA,NA
3,4,P21,D,processing,#398e7c,#FFFFFF,image185,image253,NA,right,right,TRUE,809.5,NA,NA
3,4,P22,D,processing,#6e3569,#FFFFFF,image132,image254,NA,right,right,TRUE,1367.5,NA,NA
3,4,P22,D,processing,#1ecc21,#FFFFFF,image223,image426,NA,left,left,TRUE,850.5,NA,NA
3,4,P22,D,processing,#937c4d,#FFFFFF,image27,image102,NA,right,right,TRUE,1005.7999999998137,NA,NA
3,4,P22,D,processing,#0f62d7,#FFFFFF,image250,image173,NA,right,right,TRUE,638.7999999998137,NA,NA
3,4,P23,D,processing,#3e597a,#FFFFFF,image420,image43,NA,left,left,TRUE,797.7999999998137,NA,NA
3,4,P23,D,processing,#408028,#FFFFFF,image49,image306,NA,right,right,TRUE,763.0999999996275,NA,NA
3,4,P23,D,processing,#70427b,#FFFFFF,image171,image428,NA,right,right,TRUE,1396.7999999998137,NA,NA
3,4,P23,D,processing,#b04611,#FFFFFF,image211,image424,NA,right,right,TRUE,987.6999999992549,NA,NA
3,4,P24,D,processing,#894c1a,#FFFFFF,image259,image369,NA,right,right,TRUE,1548.4000000003725,NA,NA
3,4,P24,D,processing,#8721a1,#FFFFFF,image253,image95,NA,left,left,TRUE,937.2000000001863,NA,NA
3,4,P24,D,processing,#0d739b,#FFFFFF,image86,image347,NA,right,right,TRUE,685.7000000001863,NA,NA
3,4,P24,D,processing,#33c922,#FFFFFF,image256,image388,NA,right,right,TRUE,724.4000000003725,NA,NA
3,4,P25,D,processing,#a6a63f,#FFFFFF,image304,image176,NA,right,right,TRUE,883.7999999998137,NA,NA
3,4,P25,D,processing,#0eb975,#FFFFFF,image312,image216,NA,right,right,TRUE,961.2000000001863,NA,NA
3,4,P25,D,processing,#1414bd,#FFFFFF,image373,image213,NA,left,left,TRUE,805.9000000003725,NA,NA
3,4,P25,D,processing,#d80e69,#FFFFFF,image295,image390,NA,right,right,TRUE,969.2000000001863,NA,NA
3,4,1,D,memory-resp,#5a6d37,#FFFFFF,image82,image169,NA,right,right,TRUE,1357.2000000001863,image82,image169
3,4,1,D,memory-resp,#630de3,#FFFFFF,image390,image178,NA,right,right,TRUE,1528.5,image390,image178
3,4,1,D,memory-resp,#269c9c,#FFFFFF,image190,image58,NA,left,left,TRUE,2046.8999999994412,image190,image190
3,4,1,D,memory-resp,#8b3235,#FFFFFF,image284,image56,NA,left,left,TRUE,1430.7000000001863,image284,image284
3,4,1,D,retrieval,NA,NA,NA,NA,image82,NA,image190,FALSE,2157.0999999996275,image82,image169
3,4,1,D,retrieval,NA,NA,NA,NA,image390,NA,image390,TRUE,4402.199999999255,image390,image169
3,4,1,D,retrieval,NA,NA,NA,NA,image190,NA,image82,FALSE,3031.2999999998137,image190,image169
3,4,1,D,retrieval,NA,NA,NA,NA,image284,NA,image284,TRUE,403.90000000037253,image284,image169
3,4,2,D,memory-resp,#753e4f,#FFFFFF,image318,image35,NA,right,right,TRUE,1033,image318,image35
3,4,2,D,memory-resp,#4c16df,#FFFFFF,image308,image325,NA,right,right,TRUE,1055,image308,image325
3,4,2,D,memory-resp,#1ac18c,#FFFFFF,image317,image22,NA,right,left,FALSE,1775.3999999994412,image317,image22
3,4,2,D,memory-resp,#91d317,#FFFFFF,image320,image108,NA,left,left,TRUE,1532.0999999996275,image320,image320
3,4,2,D,retrieval,NA,NA,NA,NA,image320,NA,image320,TRUE,852.5999999996275,image320,image35
3,4,2,D,retrieval,NA,NA,NA,NA,image318,NA,image318,TRUE,4029.2999999998137,image318,image35
3,4,2,D,retrieval,NA,NA,NA,NA,image308,NA,image317,FALSE,6292.799999999814,image308,image35
3,4,2,D,retrieval,NA,NA,NA,NA,image317,NA,image35,FALSE,2502.9000000003725,image317,image35
3,4,3,D,memory-resp,#2a5693,#FFFFFF,image392,image213,NA,left,left,TRUE,1409.8999999994412,image392,image392
3,4,3,D,memory-resp,#15893c,#FFFFFF,image276,image45,NA,left,left,TRUE,1511.5,image276,image276
3,4,3,D,memory-resp,#87316e,#FFFFFF,image331,image18,NA,right,right,TRUE,1907.9000000003725,image331,image18
3,4,3,D,memory-resp,#a88124,#FFFFFF,image189,image396,NA,left,left,TRUE,995.5,image189,image189
3,4,3,D,retrieval,NA,NA,NA,NA,image276,NA,image392,FALSE,6497.600000000559,image276,image392
3,4,3,D,retrieval,NA,NA,NA,NA,image189,NA,image189,TRUE,1363.1000000005588,image189,image392
3,4,3,D,retrieval,NA,NA,NA,NA,image331,NA,image392,FALSE,2041.199999999255,image331,image392
3,4,3,D,retrieval,NA,NA,NA,NA,image392,NA,image294,FALSE,2688.2999999998137,image392,image392
3,4,4,D,memory-resp,#720bb7,#FFFFFF,image25,image420,NA,right,right,TRUE,1546.5,image25,image420
3,4,4,D,memory-resp,#ad2725,#FFFFFF,image323,image324,NA,left,left,TRUE,1526.2999999998137,image323,image323
3,4,4,D,memory-resp,#65c81e,#FFFFFF,image285,image134,NA,left,left,TRUE,1244.7999999998137,image285,image285
3,4,4,D,memory-resp,#17cade,#FFFFFF,image250,image211,NA,left,left,TRUE,943.1999999992549,image250,image250
3,4,4,D,retrieval,NA,NA,NA,NA,image285,NA,image285,TRUE,1253.5999999996275,image285,image420
3,4,4,D,retrieval,NA,NA,NA,NA,image250,NA,image250,TRUE,1224.5,image250,image420
3,4,4,D,retrieval,NA,NA,NA,NA,image323,NA,image323,TRUE,1574.2999999998137,image323,image420
3,4,4,D,retrieval,NA,NA,NA,NA,image25,NA,image420,FALSE,1082.7999999998137,image25,image420
3,4,5,D,memory-resp,#b32114,#FFFFFF,image243,image16,NA,right,right,TRUE,1739.2999999998137,image243,image16
3,4,5,D,memory-resp,#41bd2e,#FFFFFF,image397,image176,NA,right,right,TRUE,2026.5,image397,image176
3,4,5,D,memory-resp,#0f7e99,#FFFFFF,image195,image324,NA,left,left,TRUE,1256.7999999998137,image195,image195
3,4,5,D,memory-resp,#5d3573,#FFFFFF,image57,image35,NA,right,right,TRUE,936.5,image57,image35
3,4,5,D,retrieval,NA,NA,NA,NA,image243,NA,image243,TRUE,4769.799999999814,image243,image16
3,4,5,D,retrieval,NA,NA,NA,NA,image57,NA,image397,FALSE,4908.899999999441,image57,image16
3,4,5,D,retrieval,NA,NA,NA,NA,image195,NA,image195,TRUE,1702,image195,image16
3,4,5,D,retrieval,NA,NA,NA,NA,image397,NA,image397,TRUE,2091.399999999441,image397,image16
3,4,6,D,memory-resp,#13908e,#FFFFFF,image42,image248,NA,right,right,TRUE,1313.6000000005588,image42,image248
3,4,6,D,memory-resp,#68499c,#FFFFFF,image306,image59,NA,left,left,TRUE,1628.2999999998137,image306,image306
3,4,6,D,memory-resp,#8f424d,#FFFFFF,image81,image425,NA,right,right,TRUE,1141.5,image81,image425
3,4,6,D,memory-resp,#6c950f,#FFFFFF,image93,image250,NA,right,right,TRUE,1310.5999999996275,image93,image250
3,4,6,D,retrieval,NA,NA,NA,NA,image93,NA,image93,TRUE,1318.5,image93,image248
3,4,6,D,retrieval,NA,NA,NA,NA,image306,NA,image306,TRUE,2218.699999999255,image306,image248
3,4,6,D,retrieval,NA,NA,NA,NA,image42,NA,image425,FALSE,4668.299999999814,image42,image248
3,4,6,D,retrieval,NA,NA,NA,NA,image81,NA,image81,TRUE,688.2999999998137,image81,image248
3,4,7,D,memory-resp,#d3471d,#FFFFFF,image35,image37,NA,left,left,TRUE,1838.0999999996275,image35,image35
3,4,7,D,memory-resp,#2aa3bb,#FFFFFF,image269,image307,NA,left,right,FALSE,1775.7000000001863,image269,image269
3,4,7,D,memory-resp,#7b1089,#FFFFFF,image237,image215,NA,right,NULL,FALSE,NA,image237,image215
3,4,7,D,memory-resp,#13a210,#FFFFFF,image247,image82,NA,left,left,TRUE,2196,image247,image247
3,4,7,D,retrieval,NA,NA,NA,NA,image35,NA,image215,FALSE,2204.7000000001863,image35,image35
3,4,7,D,retrieval,NA,NA,NA,NA,image269,NA,image269,TRUE,2435.5999999996275,image269,image35
3,4,7,D,retrieval,NA,NA,NA,NA,image247,NA,image307,FALSE,2246,image247,image35
3,4,7,D,retrieval,NA,NA,NA,NA,image237,NA,image247,FALSE,2313,image237,image35
3,4,8,D,memory-resp,#89b814,#FFFFFF,image105,image250,NA,right,right,TRUE,1783.7999999998137,image105,image250
3,4,8,D,memory-resp,#87171e,#FFFFFF,image371,image178,NA,right,right,TRUE,1071.3999999994412,image371,image178
3,4,8,D,memory-resp,#399388,#FFFFFF,image336,image285,NA,right,right,TRUE,1083.5,image336,image285
3,4,8,D,memory-resp,#7a33c7,#FFFFFF,image280,image325,NA,left,left,TRUE,1057.7999999998137,image280,image280
3,4,8,D,retrieval,NA,NA,NA,NA,image280,NA,image280,TRUE,1145.6000000005588,image280,image250
3,4,8,D,retrieval,NA,NA,NA,NA,image371,NA,image371,TRUE,1898.2000000001863,image371,image250
3,4,8,D,retrieval,NA,NA,NA,NA,image105,NA,image285,FALSE,3453,image105,image250
3,4,8,D,retrieval,NA,NA,NA,NA,image336,NA,image336,TRUE,2060.7999999998137,image336,image250
3,4,9,D,memory-resp,#725636,#FFFFFF,image358,image63,NA,right,right,TRUE,1289.2000000001863,image358,image63
3,4,9,D,memory-resp,#14378a,#FFFFFF,image211,image317,NA,left,left,TRUE,1668,image211,image211
3,4,9,D,memory-resp,#86277e,#FFFFFF,image390,image168,NA,left,left,TRUE,1244.5,image390,image390
3,4,9,D,memory-resp,#22a03d,#FFFFFF,image176,image136,NA,left,left,TRUE,1216.7000000001863,image176,image176
3,4,9,D,retrieval,NA,NA,NA,NA,image211,NA,image211,TRUE,3287.100000000559,image211,image63
3,4,9,D,retrieval,NA,NA,NA,NA,image390,NA,image390,TRUE,1422.0999999996275,image390,image63
3,4,9,D,retrieval,NA,NA,NA,NA,image358,NA,image358,TRUE,2623.600000000559,image358,image63
3,4,9,D,retrieval,NA,NA,NA,NA,image176,NA,image176,TRUE,2346.2000000001863,image176,image63
3,4,10,D,memory-resp,#ba5e21,#FFFFFF,image133,image155,NA,left,left,TRUE,2004.7999999998137,image133,image133
3,4,10,D,memory-resp,#7c128c,#FFFFFF,image330,image218,NA,left,left,TRUE,1139.5999999996275,image330,image330
3,4,10,D,memory-resp,#0f698f,#FFFFFF,image52,image147,NA,left,left,TRUE,1357,image52,image52
3,4,10,D,memory-resp,#248a1e,#FFFFFF,image116,image250,NA,right,right,TRUE,2226.5,image116,image250
3,4,10,D,retrieval,NA,NA,NA,NA,image52,NA,image330,FALSE,4139.5,image52,image133
3,4,10,D,retrieval,NA,NA,NA,NA,image116,NA,image330,FALSE,3574.7999999998137,image116,image133
3,4,10,D,retrieval,NA,NA,NA,NA,image330,NA,image52,FALSE,2425.7000000001863,image330,image133
3,4,10,D,retrieval,NA,NA,NA,NA,image133,NA,image133,TRUE,817.2000000001863,image133,image133
3,4,11,D,memory-resp,#76904c,#FFFFFF,image298,image52,NA,right,right,TRUE,1387.0999999996275,image298,image52
3,4,11,D,memory-resp,#238074,#FFFFFF,image178,image259,NA,left,left,TRUE,1562.6000000005588,image178,image178
3,4,11,D,memory-resp,#551f93,#FFFFFF,image79,image116,NA,left,left,TRUE,1470.7000000001863,image79,image79
3,4,11,D,memory-resp,#873b43,#FFFFFF,image342,image177,NA,left,left,TRUE,800.1000000005588,image342,image342
3,4,11,D,retrieval,NA,NA,NA,NA,image178,NA,image178,TRUE,3872.899999999441,image178,image52
3,4,11,D,retrieval,NA,NA,NA,NA,image79,NA,image79,TRUE,1119.4000000003725,image79,image52
3,4,11,D,retrieval,NA,NA,NA,NA,image298,NA,image298,TRUE,2938.300000000745,image298,image52
3,4,11,D,retrieval,NA,NA,NA,NA,image342,NA,image342,TRUE,2228.5999999996275,image342,image52
3,4,12,D,memory-resp,#7621a1,#FFFFFF,image133,image341,NA,left,left,TRUE,1582,image133,image133
3,4,12,D,memory-resp,#357e97,#FFFFFF,image254,image65,NA,left,left,TRUE,1097.2000000001863,image254,image254
3,4,12,D,memory-resp,#5c7e44,#FFFFFF,image146,image50,NA,left,left,TRUE,1136.3999999994412,image146,image146
3,4,12,D,memory-resp,#904931,#FFFFFF,image409,image15,NA,left,left,TRUE,2319.9000000003725,image409,image409
3,4,12,D,retrieval,NA,NA,NA,NA,image254,NA,image254,TRUE,2431.7999999998137,image254,image133
3,4,12,D,retrieval,NA,NA,NA,NA,image133,NA,image133,TRUE,1460.5,image133,image133
3,4,12,D,retrieval,NA,NA,NA,NA,image146,NA,image146,TRUE,1850.6000000005588,image146,image133
3,4,12,D,retrieval,NA,NA,NA,NA,image409,NA,image409,TRUE,1990.9000000003725,image409,image133
3,4,13,D,memory-resp,#29c72b,#FFFFFF,image330,image174,NA,right,right,TRUE,1303.2000000001863,image330,image174
3,4,13,D,memory-resp,#167398,#FFFFFF,image195,image264,NA,left,left,TRUE,1301.8999999994412,image195,image195
3,4,13,D,memory-resp,#cf7a2a,#FFFFFF,image43,image44,NA,left,left,TRUE,1589.5999999996275,image43,image43
3,4,13,D,memory-resp,#91429a,#FFFFFF,image411,image280,NA,right,NULL,FALSE,NA,image411,image280
3,4,13,D,retrieval,NA,NA,NA,NA,image43,NA,image174,FALSE,5349.200000000186,image43,image174
3,4,13,D,retrieval,NA,NA,NA,NA,image411,NA,image330,FALSE,2771.600000000559,image411,image174
3,4,13,D,retrieval,NA,NA,NA,NA,image195,NA,image411,FALSE,1447.2000000001863,image195,image174
3,4,13,D,retrieval,NA,NA,NA,NA,image330,NA,image280,FALSE,2056.5,image330,image174
3,4,14,D,memory-resp,#ca16af,#FFFFFF,image424,image319,NA,left,left,TRUE,1766.5999999996275,image424,image424
3,4,14,D,memory-resp,#bc9b24,#FFFFFF,image147,image330,NA,right,right,TRUE,1490.2000000001863,image147,image330
3,4,14,D,memory-resp,#131ddd,#FFFFFF,image429,image169,NA,right,right,TRUE,2125.2000000001863,image429,image169
3,4,14,D,memory-resp,#25d041,#FFFFFF,image151,image102,NA,right,NULL,FALSE,NA,image151,image102
3,4,14,D,retrieval,NA,NA,NA,NA,image424,NA,image330,FALSE,3583.0999999996275,image424,image424
3,4,14,D,retrieval,NA,NA,NA,NA,image147,NA,image424,FALSE,4513,image147,image424
3,4,14,D,retrieval,NA,NA,NA,NA,image151,NA,image43,FALSE,4353.5999999996275,image151,image424
3,4,14,D,retrieval,NA,NA,NA,NA,image429,NA,image429,TRUE,2246.9000000003725,image429,image424
3,4,15,D,memory-resp,#846c39,#FFFFFF,image232,image169,NA,right,right,TRUE,1231,image232,image169
3,4,15,D,memory-resp,#2c34c9,#FFFFFF,image250,image148,NA,left,left,TRUE,1107.5,image250,image250
3,4,15,D,memory-resp,#64354f,#FFFFFF,image99,image95,NA,left,left,TRUE,1236.2999999998137,image99,image99
3,4,15,D,memory-resp,#0bad41,#FFFFFF,image381,image137,NA,right,right,TRUE,1878.9000000003725,image381,image137
3,4,15,D,retrieval,NA,NA,NA,NA,image381,NA,image381,TRUE,1676,image381,image169
3,4,15,D,retrieval,NA,NA,NA,NA,image232,NA,image232,TRUE,3271.899999999441,image232,image169
3,4,15,D,retrieval,NA,NA,NA,NA,image99,NA,image250,FALSE,1801.5,image99,image169
3,4,15,D,retrieval,NA,NA,NA,NA,image250,NA,image232,FALSE,1832.8999999994412,image250,image169
36,1,P1,B,processing,#FFFFFF,#8e910d,image26,image320,NA,left,left,TRUE,1069.8000000715256,NA,NA
36,1,P1,B,processing,#412ead,#FFFFFF,image7,image26,NA,right,right,TRUE,1372.5,NA,NA
36,1,P1,B,processing,#42a98f,#FFFFFF,image315,image26,NA,right,right,TRUE,1022.8999999761581,NA,NA
36,1,P1,B,processing,#FFFFFF,#c32270,image26,image107,NA,left,left,TRUE,1391.1000000238419,NA,NA
36,1,P2,B,processing,#3d549e,#FFFFFF,image117,image26,NA,right,right,TRUE,2309.399999976158,NA,NA
36,1,P2,B,processing,#904c8b,#FFFFFF,image330,image26,NA,right,right,TRUE,1134,NA,NA
36,1,P2,B,processing,#a6850c,#FFFFFF,image78,image26,NA,right,right,TRUE,1266,NA,NA
36,1,P2,B,processing,#FFFFFF,#36a650,image26,image394,NA,left,left,TRUE,1741.2999999523163,NA,NA
36,1,P3,B,processing,#63b116,#FFFFFF,image130,image26,NA,right,right,TRUE,1566.2999999523163,NA,NA
36,1,P3,B,processing,#FFFFFF,#489993,image26,image110,NA,left,left,TRUE,1761.2000000476837,NA,NA
36,1,P3,B,processing,#FFFFFF,#512881,image26,image413,NA,left,left,TRUE,1367.5,NA,NA
36,1,P3,B,processing,#951409,#FFFFFF,image124,image26,NA,right,right,TRUE,2210,NA,NA
36,1,P4,B,processing,#FFFFFF,#81286f,image26,image195,NA,left,left,TRUE,1862.1000000238419,NA,NA
36,1,P4,B,processing,#FFFFFF,#14c251,image26,image248,NA,left,left,TRUE,1178.6999999284744,NA,NA
36,1,P4,B,processing,#FFFFFF,#193b8f,image26,image12,NA,left,left,TRUE,1300.3999999761581,NA,NA
36,1,P4,B,processing,#FFFFFF,#937f34,image26,image32,NA,left,left,TRUE,1231.1000000238419,NA,NA
36,1,P5,B,processing,#FFFFFF,#90952d,image26,image416,NA,left,left,TRUE,1451.1000000238419,NA,NA
36,1,P5,B,processing,#FFFFFF,#d61f46,image26,image119,NA,left,left,TRUE,1357.7000000476837,NA,NA
36,1,P5,B,processing,#FFFFFF,#268762,image26,image178,NA,left,left,TRUE,1114.8999999761581,NA,NA
36,1,P5,B,processing,#4c20c5,#FFFFFF,image327,image26,NA,right,right,TRUE,1755.3999999761581,NA,NA
36,1,P6,B,processing,#877817,#FFFFFF,image347,image26,NA,right,right,TRUE,1374.6000000238419,NA,NA
36,1,P6,B,processing,#7e1b6c,#FFFFFF,image226,image26,NA,right,right,TRUE,1343.7999999523163,NA,NA
36,1,P6,B,processing,#FFFFFF,#46864b,image26,image120,NA,left,left,TRUE,1470.6000000238419,NA,NA
36,1,P6,B,processing,#1f4da8,#FFFFFF,image52,image26,NA,right,right,TRUE,2013.1999999284744,NA,NA
36,1,P7,B,processing,#e6240f,#FFFFFF,image37,image26,NA,right,right,TRUE,1241.5,NA,NA
36,1,P7,B,processing,#7041aa,#FFFFFF,image384,image26,NA,right,right,TRUE,1250.2000000476837,NA,NA
36,1,P7,B,processing,#2a8289,#FFFFFF,image399,image26,NA,right,right,TRUE,1684.5,NA,NA
36,1,P7,B,processing,#FFFFFF,#82b12f,image26,image88,NA,left,left,TRUE,1558.6000000238419,NA,NA
36,1,P8,B,processing,#328b54,#FFFFFF,image152,image26,NA,right,right,TRUE,1495.8999999761581,NA,NA
36,1,P8,B,processing,#FFFFFF,#78633f,image26,image274,NA,left,left,TRUE,1564.3999999761581,NA,NA
36,1,P8,B,processing,#FFFFFF,#26478c,image26,image187,NA,left,left,TRUE,1385,NA,NA
36,1,P8,B,processing,#FFFFFF,#b23481,image26,image186,NA,left,left,TRUE,1630.7000000476837,NA,NA
36,1,P9,B,processing,#ba723b,#FFFFFF,image215,image26,NA,right,right,TRUE,1620.5,NA,NA
36,1,P9,B,processing,#FFFFFF,#275672,image26,image260,NA,left,left,TRUE,1725,NA,NA
36,1,P9,B,processing,#29d20f,#FFFFFF,image338,image26,NA,right,right,TRUE,1641.0999999046326,NA,NA
36,1,P9,B,processing,#FFFFFF,#964f93,image26,image194,NA,left,left,TRUE,1623.3999999761581,NA,NA
36,1,P10,B,processing,#867d3c,#FFFFFF,image176,image26,NA,right,right,TRUE,1619.7999999523163,NA,NA
36,1,P10,B,processing,#132bae,#FFFFFF,image95,image26,NA,right,right,TRUE,1655.5,NA,NA
36,1,P10,B,processing,#FFFFFF,#4e975d,image26,image16,NA,left,left,TRUE,1463.2999999523163,NA,NA
36,1,P10,B,processing,#8b1381,#FFFFFF,image296,image26,NA,right,right,TRUE,1702.8999999761581,NA,NA
36,1,P11,B,processing,#af4b6c,#FFFFFF,image391,image26,NA,right,right,TRUE,1393.3999999761581,NA,NA
36,1,P11,B,processing,#FFFFFF,#2aa282,image26,image34,NA,left,left,TRUE,1417.7999999523163,NA,NA
36,1,P11,B,processing,#0f0ca6,#FFFFFF,image94,image26,NA,right,right,TRUE,2141.5,NA,NA
36,1,P11,B,processing,#FFFFFF,#a7b20a,image26,image356,NA,left,left,TRUE,1203.8999999761581,NA,NA
36,1,P12,B,processing,#FFFFFF,#0ec8b9,image26,image49,NA,left,left,TRUE,1395,NA,NA
36,1,P12,B,processing,#FFFFFF,#473d8f,image26,image393,NA,left,left,TRUE,1165.1999999284744,NA,NA
36,1,P12,B,processing,#FFFFFF,#7bb81e,image26,image222,NA,left,left,TRUE,1312.4000000953674,NA,NA
36,1,P12,B,processing,#a90a47,#FFFFFF,image40,image26,NA,right,right,TRUE,1955.0999999046326,NA,NA
36,1,P13,B,processing,#FFFFFF,#119c70,image26,image173,NA,left,left,TRUE,1593.5,NA,NA
36,1,P13,B,processing,#8ba23f,#FFFFFF,image370,image26,NA,right,right,TRUE,2103.2999999523163,NA,NA
36,1,P13,B,processing,#2612d3,#FFFFFF,image247,image26,NA,right,right,TRUE,1450,NA,NA
36,1,P13,B,processing,#973561,#FFFFFF,image424,image26,NA,right,right,TRUE,1595.1000000238419,NA,NA
36,1,P14,B,processing,#28d22e,#FFFFFF,image269,image26,NA,right,right,TRUE,1251.3000000715256,NA,NA
36,1,P14,B,processing,#6f2970,#FFFFFF,image113,image26,NA,right,right,TRUE,1010,NA,NA
36,1,P14,B,processing,#FFFFFF,#4c79a4,image26,image102,NA,left,left,TRUE,1758,NA,NA
36,1,P14,B,processing,#FFFFFF,#de7c0d,image26,image340,NA,left,left,TRUE,1561.4000000953674,NA,NA
36,1,P15,B,processing,#FFFFFF,#51821c,image26,image280,NA,left,left,TRUE,2107.100000023842,NA,NA
36,1,P15,B,processing,#FFFFFF,#3e7179,image26,image326,NA,left,left,TRUE,1292,NA,NA
36,1,P15,B,processing,#FFFFFF,#b3110f,image26,image197,NA,left,left,TRUE,1265.6000000238419,NA,NA
36,1,P15,B,processing,#FFFFFF,#4c3569,image26,image365,NA,left,left,TRUE,1318.5,NA,NA
36,1,P16,B,processing,#503277,#FFFFFF,image38,image26,NA,right,right,TRUE,1404.2999999523163,NA,NA
36,1,P16,B,processing,#994d5c,#FFFFFF,image257,image26,NA,right,right,TRUE,1592.1000000238419,NA,NA
36,1,P16,B,processing,#6f891a,#FFFFFF,image91,image26,NA,right,right,TRUE,1898.3999999761581,NA,NA
36,1,P16,B,processing,#3b7e81,#FFFFFF,image182,image26,NA,right,right,TRUE,1633.9000000953674,NA,NA
36,1,P17,B,processing,#de871b,#FFFFFF,image91,image26,NA,right,right,TRUE,1438.6000000238419,NA,NA
36,1,P17,B,processing,#FFFFFF,#12d353,image26,image412,NA,left,left,TRUE,1816.5,NA,NA
36,1,P17,B,processing,#FFFFFF,#811d6a,image26,image230,NA,left,left,TRUE,1368,NA,NA
36,1,P17,B,processing,#4377b6,#FFFFFF,image63,image26,NA,right,right,TRUE,2028.3999999761581,NA,NA
36,1,P18,B,processing,#3a0ba8,#FFFFFF,image391,image26,NA,right,right,TRUE,1817.5,NA,NA
36,1,P18,B,processing,#ac394b,#FFFFFF,image395,image26,NA,right,right,TRUE,1303.2000000476837,NA,NA
36,1,P18,B,processing,#81ba17,#FFFFFF,image79,image26,NA,right,right,TRUE,1658,NA,NA
36,1,P18,B,processing,#FFFFFF,#10ccd5,image26,image308,NA,left,left,TRUE,1957,NA,NA
36,1,P19,B,processing,#151d89,#FFFFFF,image4,image26,NA,right,right,TRUE,2489.2999999523163,NA,NA
36,1,P19,B,processing,#ab1781,#FFFFFF,image420,image26,NA,right,right,TRUE,1374.7000000476837,NA,NA
36,1,P19,B,processing,#bb8416,#FFFFFF,image169,image26,NA,right,right,TRUE,1375.3999999761581,NA,NA
36,1,P19,B,processing,#FFFFFF,#1e993d,image26,image404,NA,left,NULL,FALSE,NA,NA,NA
36,1,P20,B,processing,#FFFFFF,#9e30c0,image26,image425,NA,left,left,TRUE,1834.7999999523163,NA,NA
36,1,P20,B,processing,#1b92a1,#FFFFFF,image178,image26,NA,right,right,TRUE,1818.3999999761581,NA,NA
36,1,P20,B,processing,#FFFFFF,#863328,image26,image50,NA,left,left,TRUE,1536.1999999284744,NA,NA
36,1,P20,B,processing,#4dc332,#FFFFFF,image181,image26,NA,right,right,TRUE,1967.5,NA,NA
36,1,P21,B,processing,#b79c24,#FFFFFF,image391,image26,NA,right,right,TRUE,1792.8999999761581,NA,NA
36,1,P21,B,processing,#13378b,#FFFFFF,image176,image26,NA,right,right,TRUE,1237.3000000715256,NA,NA
36,1,P21,B,processing,#FFFFFF,#b441aa,image26,image209,NA,left,left,TRUE,2374.8000000715256,NA,NA
36,1,P21,B,processing,#309c5f,#FFFFFF,image142,image26,NA,right,right,TRUE,1651.0999999046326,NA,NA
36,1,P22,B,processing,#10e039,#FFFFFF,image284,image26,NA,right,right,TRUE,2140.8000000715256,NA,NA
36,1,P22,B,processing,#2042bc,#FFFFFF,image133,image26,NA,right,right,TRUE,1028.2000000476837,NA,NA
36,1,P22,B,processing,#97992e,#FFFFFF,image35,image26,NA,right,right,TRUE,1005.3999999761581,NA,NA
36,1,P22,B,processing,#FFFFFF,#c01b84,image26,image223,NA,left,left,TRUE,1866.6000000238419,NA,NA
36,1,P23,B,processing,#1f7db7,#FFFFFF,image205,image26,NA,right,right,TRUE,1320,NA,NA
36,1,P23,B,processing,#FFFFFF,#7f4e97,image26,image423,NA,left,left,TRUE,1518.8000000715256,NA,NA
36,1,P23,B,processing,#56b045,#FFFFFF,image199,image26,NA,right,right,TRUE,1601.3000000715256,NA,NA
36,1,P23,B,processing,#7b3428,#FFFFFF,image411,image26,NA,right,right,TRUE,1863.8999999761581,NA,NA
36,1,P24,B,processing,#FFFFFF,#1c6d7d,image26,image220,NA,left,left,TRUE,1430.7000000476837,NA,NA
36,1,P24,B,processing,#a34347,#FFFFFF,image145,image26,NA,right,right,TRUE,1599.5,NA,NA
36,1,P24,B,processing,#FFFFFF,#69388a,image26,image299,NA,left,left,TRUE,1364.8999999761581,NA,NA
36,1,P24,B,processing,#6acb1a,#FFFFFF,image292,image26,NA,right,right,TRUE,1810,NA,NA
36,1,P25,B,processing,#FFFFFF,#8a8a28,image26,image1,NA,left,NULL,FALSE,NA,NA,NA
36,1,P25,B,processing,#FFFFFF,#16148f,image26,image344,NA,left,left,TRUE,1780.7999999523163,NA,NA
36,1,P25,B,processing,#49a286,#FFFFFF,image293,image26,NA,right,right,TRUE,1560.4000000953674,NA,NA
36,1,P25,B,processing,#FFFFFF,#a54067,image26,image125,NA,left,left,TRUE,1487.5,NA,NA
36,1,1,B,memory-resp,#FFFFFF,#4f9c89,image26,image236,NA,left,NULL,FALSE,NA,image236,image26
36,1,1,B,memory-resp,#FFFFFF,#8dda10,image26,image276,NA,left,left,TRUE,2093,image276,image26
36,1,1,B,memory-resp,#4f29a8,#FFFFFF,image66,image26,NA,right,NULL,FALSE,NA,image66,image26
36,1,1,B,memory-resp,#FFFFFF,#9d0b3c,image26,image171,NA,left,NULL,FALSE,NA,image171,image26
36,1,1,B,retrieval,NA,NA,NA,NA,image236,NA,image236,TRUE,7144.299999952316,image236,image26
36,1,1,B,retrieval,NA,NA,NA,NA,image276,NA,NULL,FALSE,NA,image276,image26
36,1,1,B,retrieval,NA,NA,NA,NA,image171,NA,image167,FALSE,3724.2999999523163,image171,image26
36,1,1,B,retrieval,NA,NA,NA,NA,image66,NA,image66,TRUE,6126.200000047684,image66,image26
36,1,2,B,memory-resp,#22ba17,#FFFFFF,image308,image26,NA,right,NULL,FALSE,NA,image308,image26
36,1,2,B,memory-resp,#FFFFFF,#8d4f25,image26,image292,NA,left,left,TRUE,2112,image292,image26
36,1,2,B,memory-resp,#FFFFFF,#368bc4,image26,image392,NA,left,NULL,FALSE,NA,image392,image26
36,1,2,B,memory-resp,#FFFFFF,#73247b,image26,image342,NA,left,left,TRUE,1947.2000000476837,image342,image26
36,1,2,B,retrieval,NA,NA,NA,NA,image308,NA,NULL,FALSE,NA,image308,image26
36,1,2,B,retrieval,NA,NA,NA,NA,image292,NA,image395,FALSE,6862.600000023842,image292,image26
36,1,2,B,retrieval,NA,NA,NA,NA,image342,NA,image342,TRUE,3937.5,image342,image26
36,1,2,B,retrieval,NA,NA,NA,NA,image392,NA,image392,TRUE,2601.5,image392,image26
36,1,3,B,memory-resp,#2f9d43,#FFFFFF,image216,image26,NA,right,NULL,FALSE,NA,image216,image26
36,1,3,B,memory-resp,#8d7530,#FFFFFF,image286,image26,NA,right,right,TRUE,1623.2000000476837,image286,image26
36,1,3,B,memory-resp,#2b49b6,#FFFFFF,image95,image26,NA,right,right,TRUE,1142.6999999284744,image95,image26
36,1,3,B,memory-resp,#FFFFFF,#b540b5,image26,image198,NA,left,NULL,FALSE,NA,image198,image26
36,1,3,B,retrieval,NA,NA,NA,NA,image216,NA,image216,TRUE,7095.799999952316,image216,image26
36,1,3,B,retrieval,NA,NA,NA,NA,image95,NA,image95,TRUE,5070.599999904633,image95,image26
36,1,3,B,retrieval,NA,NA,NA,NA,image198,NA,image198,TRUE,3826.100000023842,image198,image26
36,1,3,B,retrieval,NA,NA,NA,NA,image286,NA,image286,TRUE,3672.7999999523163,image286,image26
36,1,4,B,memory-resp,#6b298e,#FFFFFF,image72,image26,NA,right,right,TRUE,2041.6000000238419,image72,image26
36,1,4,B,memory-resp,#FFFFFF,#bf4422,image26,image59,NA,left,left,TRUE,2230,image59,image26
36,1,4,B,memory-resp,#619a4c,#FFFFFF,image300,image26,NA,right,right,TRUE,2330.2000000476837,image300,image26
36,1,4,B,memory-resp,#2e9494,#FFFFFF,image299,image26,NA,right,right,TRUE,1997,image299,image26
36,1,4,B,retrieval,NA,NA,NA,NA,image72,NA,image72,TRUE,7918,image72,image26
36,1,4,B,retrieval,NA,NA,NA,NA,image59,NA,image300,FALSE,6748.100000023842,image59,image26
36,1,4,B,retrieval,NA,NA,NA,NA,image299,NA,image299,TRUE,5828.600000023842,image299,image26
36,1,4,B,retrieval,NA,NA,NA,NA,image300,NA,image300,TRUE,2922.899999976158,image300,image26
36,1,5,B,memory-resp,#FFFFFF,#690fa9,image26,image263,NA,left,left,TRUE,2216.600000023842,image263,image26
36,1,5,B,memory-resp,#a25e53,#FFFFFF,image88,image26,NA,right,right,TRUE,2140,image88,image26
36,1,5,B,memory-resp,#0d9fe3,#FFFFFF,image209,image26,NA,right,right,TRUE,1876.1000000238419,image209,image26
36,1,5,B,memory-resp,#FFFFFF,#51d21e,image26,image34,NA,left,NULL,FALSE,NA,image34,image26
36,1,5,B,retrieval,NA,NA,NA,NA,image88,NA,NULL,FALSE,NA,image88,image26
36,1,5,B,retrieval,NA,NA,NA,NA,image209,NA,image34,FALSE,8492.900000095367,image209,image26
36,1,5,B,retrieval,NA,NA,NA,NA,image263,NA,image263,TRUE,5069.799999952316,image263,image26
36,1,5,B,retrieval,NA,NA,NA,NA,image34,NA,image373,FALSE,5529.200000047684,image34,image26
36,1,6,B,memory-resp,#FFFFFF,#2bbfb5,image26,image205,NA,left,NULL,FALSE,NA,image205,image26
36,1,6,B,memory-resp,#FFFFFF,#71a654,image26,image31,NA,left,NULL,FALSE,NA,image31,image26
36,1,6,B,memory-resp,#FFFFFF,#b73c10,image26,image300,NA,left,left,TRUE,653.3000000715256,image300,image26
36,1,6,B,memory-resp,#8227be,#FFFFFF,image313,image26,NA,right,right,TRUE,2091.100000023842,image313,image26
36,1,6,B,retrieval,NA,NA,NA,NA,image205,NA,image326,FALSE,5125.600000023842,image205,image26
36,1,6,B,retrieval,NA,NA,NA,NA,image31,NA,image109,FALSE,4646.800000071526,image31,image26
36,1,6,B,retrieval,NA,NA,NA,NA,image313,NA,image313,TRUE,1755.6000000238419,image313,image26
36,1,6,B,retrieval,NA,NA,NA,NA,image300,NA,image300,TRUE,1790.6999999284744,image300,image26
36,1,7,B,memory-resp,#FFFFFF,#094f9f,image26,image133,NA,left,left,TRUE,2318.7999999523163,image133,image26
36,1,7,B,memory-resp,#b937a3,#FFFFFF,image411,image26,NA,right,right,TRUE,2007.2000000476837,image411,image26
36,1,7,B,memory-resp,#FFFFFF,#288a42,image26,image296,NA,left,left,TRUE,1901.1000000238419,image296,image26
36,1,7,B,memory-resp,#FFFFFF,#97734e,image26,image47,NA,left,left,TRUE,2290.1999999284744,image47,image26
36,1,7,B,retrieval,NA,NA,NA,NA,image47,NA,image292,FALSE,7910.199999928474,image47,image26
36,1,7,B,retrieval,NA,NA,NA,NA,image296,NA,image296,TRUE,4124.899999976158,image296,image26
36,1,7,B,retrieval,NA,NA,NA,NA,image411,NA,image412,FALSE,3931.7999999523163,image411,image26
36,1,7,B,retrieval,NA,NA,NA,NA,image133,NA,image133,TRUE,3335.100000023842,image133,image26
36,1,8,B,memory-resp,#FFFFFF,#c48d27,image26,image81,NA,left,NULL,FALSE,NA,image81,image26
36,1,8,B,memory-resp,#1031b1,#FFFFFF,image94,image26,NA,right,right,TRUE,2205.5,image94,image26
36,1,8,B,memory-resp,#FFFFFF,#b82bbf,image26,image60,NA,left,left,TRUE,2192.2999999523163,image60,image26
36,1,8,B,memory-resp,#FFFFFF,#168337,image26,image353,NA,left,left,TRUE,2188,image353,image26
36,1,8,B,retrieval,NA,NA,NA,NA,image81,NA,image81,TRUE,8213.600000023842,image81,image26
36,1,8,B,retrieval,NA,NA,NA,NA,image60,NA,image207,FALSE,6010.099999904633,image60,image26
36,1,8,B,retrieval,NA,NA,NA,NA,image94,NA,image94,TRUE,4738.5,image94,image26
36,1,8,B,retrieval,NA,NA,NA,NA,image353,NA,image353,TRUE,4168,image353,image26
36,1,9,B,memory-resp,#3d4371,#FFFFFF,image263,image26,NA,right,right,TRUE,2070.6999999284744,image263,image26
36,1,9,B,memory-resp,#FFFFFF,#c2a829,image26,image223,NA,left,left,TRUE,1859.5,image223,image26
36,1,9,B,memory-resp,#FFFFFF,#1aa23f,image26,image181,NA,left,left,TRUE,2057.7999999523163,image181,image26
36,1,9,B,memory-resp,#FFFFFF,#a5406e,image26,image119,NA,left,left,TRUE,1634.5,image119,image26
36,1,9,B,retrieval,NA,NA,NA,NA,image263,NA,NULL,FALSE,NA,image263,image26
36,1,9,B,retrieval,NA,NA,NA,NA,image223,NA,image119,FALSE,6065.299999952316,image223,image26
36,1,9,B,retrieval,NA,NA,NA,NA,image119,NA,image119,TRUE,3485.899999976158,image119,image26
36,1,9,B,retrieval,NA,NA,NA,NA,image181,NA,image181,TRUE,3536.100000023842,image181,image26
36,1,10,B,memory-resp,#b39419,#FFFFFF,image391,image26,NA,right,NULL,FALSE,NA,image391,image26
36,1,10,B,memory-resp,#FFFFFF,#8a387d,image26,image280,NA,left,left,TRUE,1930,image280,image26
36,1,10,B,memory-resp,#FFFFFF,#3a50b6,image26,image198,NA,left,left,TRUE,1465.8999999761581,image198,image26
36,1,10,B,memory-resp,#20cf2f,#FFFFFF,image342,image26,NA,right,right,TRUE,1671.8000000715256,image342,image26
36,1,10,B,retrieval,NA,NA,NA,NA,image391,NA,image365,FALSE,3029.600000023842,image391,image26
36,1,10,B,retrieval,NA,NA,NA,NA,image198,NA,image198,TRUE,2978,image198,image26
36,1,10,B,retrieval,NA,NA,NA,NA,image342,NA,image342,TRUE,3707,image342,image26
36,1,10,B,retrieval,NA,NA,NA,NA,image280,NA,image382,FALSE,1647.3999999761581,image280,image26
36,1,11,B,memory-resp,#FFFFFF,#4d7693,image26,image350,NA,left,NULL,FALSE,NA,image350,image26
36,1,11,B,memory-resp,#FFFFFF,#d30ee1,image26,image109,NA,left,left,TRUE,1307.5,image109,image26
36,1,11,B,memory-resp,#874822,#FFFFFF,image228,image26,NA,right,right,TRUE,1738.5,image228,image26
36,1,11,B,memory-resp,#FFFFFF,#5db63a,image26,image320,NA,left,left,TRUE,1611.4000000953674,image320,image26
36,1,11,B,retrieval,NA,NA,NA,NA,image228,NA,image109,FALSE,4318.800000071526,image228,image26
36,1,11,B,retrieval,NA,NA,NA,NA,image350,NA,image350,TRUE,4405.799999952316,image350,image26
36,1,11,B,retrieval,NA,NA,NA,NA,image320,NA,image320,TRUE,1365.3999999761581,image320,image26
36,1,11,B,retrieval,NA,NA,NA,NA,image109,NA,image109,TRUE,2114.7999999523163,image109,image26
36,1,12,B,memory-resp,#FFFFFF,#29d13d,image26,image66,NA,left,left,TRUE,2169.399999976158,image66,image26
36,1,12,B,memory-resp,#FFFFFF,#2c4d9b,image26,image392,NA,left,NULL,FALSE,NA,image392,image26
36,1,12,B,memory-resp,#675132,#FFFFFF,image182,image26,NA,right,right,TRUE,1646.6999999284744,image182,image26
36,1,12,B,memory-resp,#FFFFFF,#b238a0,image26,image299,NA,left,left,TRUE,1529.4000000953674,image299,image26
36,1,12,B,retrieval,NA,NA,NA,NA,image66,NA,image392,FALSE,6156,image66,image26
36,1,12,B,retrieval,NA,NA,NA,NA,image299,NA,image299,TRUE,3422.1999999284744,image299,image26
36,1,12,B,retrieval,NA,NA,NA,NA,image182,NA,image66,FALSE,3480.7999999523163,image182,image26
36,1,12,B,retrieval,NA,NA,NA,NA,image392,NA,image392,TRUE,2721.600000023842,image392,image26
36,1,13,B,memory-resp,#11c063,#FFFFFF,image44,image26,NA,right,NULL,FALSE,NA,image44,image26
36,1,13,B,memory-resp,#FFFFFF,#322a7a,image26,image111,NA,left,left,TRUE,1840.6000000238419,image111,image26
36,1,13,B,memory-resp,#FFFFFF,#9e982e,image26,image63,NA,left,left,TRUE,1212.1000000238419,image63,image26
36,1,13,B,memory-resp,#FFFFFF,#941957,image26,image213,NA,left,left,TRUE,1454,image213,image26
36,1,13,B,retrieval,NA,NA,NA,NA,image63,NA,image63,TRUE,4861.099999904633,image63,image26
36,1,13,B,retrieval,NA,NA,NA,NA,image44,NA,image44,TRUE,3539.2000000476837,image44,image26
36,1,13,B,retrieval,NA,NA,NA,NA,image213,NA,NULL,FALSE,NA,image213,image26
36,1,13,B,retrieval,NA,NA,NA,NA,image111,NA,image345,FALSE,2115.7999999523163,image111,image26
36,1,14,B,memory-resp,#8e1c92,#FFFFFF,image178,image26,NA,right,right,TRUE,2184.8000000715256,image178,image26
36,1,14,B,memory-resp,#955837,#FFFFFF,image125,image26,NA,right,right,TRUE,1804.1999999284744,image125,image26
36,1,14,B,memory-resp,#FFFFFF,#55c02a,image26,image140,NA,left,left,TRUE,1696.6999999284744,image140,image26
36,1,14,B,memory-resp,#FFFFFF,#28899f,image26,image223,NA,left,left,TRUE,1368.5,image223,image26
36,1,14,B,retrieval,NA,NA,NA,NA,image223,NA,image223,TRUE,1712,image223,image26
36,1,14,B,retrieval,NA,NA,NA,NA,image125,NA,image125,TRUE,2426.4000000953674,image125,image26
36,1,14,B,retrieval,NA,NA,NA,NA,image140,NA,image140,TRUE,3858.5,image140,image26
36,1,14,B,retrieval,NA,NA,NA,NA,image178,NA,image178,TRUE,2398.899999976158,image178,image26
36,1,15,B,memory-resp,#7d349d,#FFFFFF,image119,image26,NA,right,right,TRUE,1985.3999999761581,image119,image26
36,1,15,B,memory-resp,#259ab1,#FFFFFF,image217,image26,NA,right,NULL,FALSE,NA,image217,image26
36,1,15,B,memory-resp,#589b22,#FFFFFF,image215,image26,NA,right,right,TRUE,1439.8999999761581,image215,image26
36,1,15,B,memory-resp,#a6351c,#FFFFFF,image111,image26,NA,right,right,TRUE,1352.2000000476837,image111,image26
36,1,15,B,retrieval,NA,NA,NA,NA,image217,NA,image217,TRUE,4851.299999952316,image217,image26
36,1,15,B,retrieval,NA,NA,NA,NA,image215,NA,image215,TRUE,2650.7000000476837,image215,image26
36,1,15,B,retrieval,NA,NA,NA,NA,image119,NA,image119,TRUE,3224.399999976158,image119,image26
36,1,15,B,retrieval,NA,NA,NA,NA,image111,NA,image111,TRUE,2650.2000000476837,image111,image26
36,2,P1,D,processing,#932999,#FFFFFF,image99,image216,NA,right,right,TRUE,2432,NA,NA
36,2,P1,D,processing,#3163b4,#FFFFFF,image68,image180,NA,left,NULL,FALSE,NA,NA,NA
36,2,P1,D,processing,#8f5d2d,#FFFFFF,image19,image63,NA,right,NULL,FALSE,NA,NA,NA
36,2,P1,D,processing,#36a13d,#FFFFFF,image35,image417,NA,left,right,FALSE,292.6999999284744,NA,NA
36,2,P2,D,processing,#8d1c74,#FFFFFF,image257,image373,NA,left,left,TRUE,1685.8999999761581,NA,NA
36,2,P2,D,processing,#168827,#FFFFFF,image44,image254,NA,right,right,TRUE,2056.3000000715256,NA,NA
36,2,P2,D,processing,#455e8c,#FFFFFF,image417,image73,NA,left,left,TRUE,2110.7999999523163,NA,NA
36,2,P2,D,processing,#9c7b26,#FFFFFF,image397,image414,NA,right,right,TRUE,1685.6000000238419,NA,NA
36,2,P3,D,processing,#13e779,#FFFFFF,image312,image385,NA,right,NULL,FALSE,NA,NA,NA
36,2,P3,D,processing,#7f3952,#FFFFFF,image157,image197,NA,right,right,TRUE,1672.3999999761581,NA,NA
36,2,P3,D,processing,#6f881b,#FFFFFF,image140,image154,NA,right,right,TRUE,1606.5999999046326,NA,NA
36,2,P3,D,processing,#5520d9,#FFFFFF,image90,image301,NA,right,right,TRUE,1934,NA,NA
36,2,P4,D,processing,#0e51e1,#FFFFFF,image299,image407,NA,left,left,TRUE,1951.5,NA,NA
36,2,P4,D,processing,#9e0a88,#FFFFFF,image301,image45,NA,left,left,TRUE,1484.5,NA,NA
36,2,P4,D,processing,#8a6619,#FFFFFF,image329,image101,NA,right,NULL,FALSE,NA,NA,NA
36,2,P4,D,processing,#336c43,#FFFFFF,image139,image388,NA,right,right,TRUE,2124.899999976158,NA,NA
36,2,P5,D,processing,#681bac,#FFFFFF,image137,image347,NA,right,left,FALSE,2132.2999999523163,NA,NA
36,2,P5,D,processing,#5d9532,#FFFFFF,image126,image308,NA,left,left,TRUE,2315.7000000476837,NA,NA
36,2,P5,D,processing,#8c2631,#FFFFFF,image93,image373,NA,right,NULL,FALSE,NA,NA,NA
36,2,P5,D,processing,#489393,#FFFFFF,image417,image71,NA,left,left,TRUE,1606.7999999523163,NA,NA
36,2,P6,D,processing,#2775c4,#FFFFFF,image8,image313,NA,left,left,TRUE,2455.2999999523163,NA,NA
36,2,P6,D,processing,#2d9d20,#FFFFFF,image35,image157,NA,left,left,TRUE,2134.6999999284744,NA,NA
36,2,P6,D,processing,#914689,#FFFFFF,image19,image82,NA,right,right,TRUE,2032.2000000476837,NA,NA
36,2,P6,D,processing,#d48021,#FFFFFF,image65,image147,NA,left,right,FALSE,1574.5,NA,NA
36,2,P7,D,processing,#1f3084,#FFFFFF,image156,image419,NA,right,right,TRUE,1804.8000000715256,NA,NA
36,2,P7,D,processing,#8d3079,#FFFFFF,image150,image273,NA,right,right,TRUE,2399,NA,NA
36,2,P7,D,processing,#31b45f,#FFFFFF,image298,image31,NA,right,NULL,FALSE,NA,NA,NA
36,2,P7,D,processing,#b49c22,#FFFFFF,image361,image423,NA,left,NULL,FALSE,NA,NA,NA
36,2,P8,D,processing,#717722,#FFFFFF,image209,image24,NA,right,right,TRUE,1743.8999999761581,NA,NA
36,2,P8,D,processing,#772258,#FFFFFF,image9,image4,NA,left,left,TRUE,2123,NA,NA
36,2,P8,D,processing,#354cc0,#FFFFFF,image365,image143,NA,right,right,TRUE,1876.7999999523163,NA,NA
36,2,P8,D,processing,#30a66d,#FFFFFF,image19,image68,NA,right,right,TRUE,2012.8999999761581,NA,NA
36,2,P9,D,processing,#70208d,#FFFFFF,image312,image344,NA,left,left,TRUE,1886.1999999284744,NA,NA
36,2,P9,D,processing,#48768e,#FFFFFF,image303,image107,NA,right,right,TRUE,1934,NA,NA
36,2,P9,D,processing,#7f5743,#FFFFFF,image390,image220,NA,left,left,TRUE,2081,NA,NA
36,2,P9,D,processing,#75a451,#FFFFFF,image72,image286,NA,right,right,TRUE,2148.5,NA,NA
36,2,P10,D,processing,#421f7f,#FFFFFF,image415,image38,NA,left,NULL,FALSE,NA,NA,NA
36,2,P10,D,processing,#36ab9d,#FFFFFF,image351,image191,NA,left,right,FALSE,2138,NA,NA
36,2,P10,D,processing,#708538,#FFFFFF,image335,image157,NA,right,NULL,FALSE,NA,NA,NA
36,2,P10,D,processing,#71324b,#FFFFFF,image7,image169,NA,right,right,TRUE,1919.2000000476837,NA,NA
36,2,P11,D,processing,#38971c,#FFFFFF,image179,image174,NA,right,right,TRUE,2103.2999999523163,NA,NA
36,2,P11,D,processing,#d811df,#FFFFFF,image255,image52,NA,right,right,TRUE,1618.2999999523163,NA,NA
36,2,P11,D,processing,#276daa,#FFFFFF,image103,image229,NA,left,left,TRUE,1952.6000000238419,NA,NA
36,2,P11,D,processing,#7f5734,#FFFFFF,image230,image350,NA,left,left,TRUE,871.7000000476837,NA,NA
36,2,P12,D,processing,#a57412,#FFFFFF,image92,image358,NA,right,right,TRUE,2329.399999976158,NA,NA
36,2,P12,D,processing,#3c74be,#FFFFFF,image403,image223,NA,right,right,TRUE,1874.6999999284744,NA,NA
36,2,P12,D,processing,#e119d0,#FFFFFF,image391,image256,NA,left,left,TRUE,2153.600000023842,NA,NA
36,2,P12,D,processing,#42b842,#FFFFFF,image155,image31,NA,right,right,TRUE,2131.100000023842,NA,NA
36,2,P13,D,processing,#229182,#FFFFFF,image347,image198,NA,left,left,TRUE,2133.5999999046326,NA,NA
