participant,blockID,trialID,condition,screenID,leftColor,rightColor,leftImage,leftSize,rightImage,rightSize,correctObject,correctResp,response,acc,rt,target,distractor
1,1,P1,B,processing,#FFFFFF,#7bd11a,image405,10,image362,24.2,NA,left,left,TRUE,498,NA,NA
1,1,P1,B,processing,#b34242,#FFFFFF,image77,120,image405,10,NA,right,right,TRUE,565,NA,NA
1,1,P1,B,processing,#7b1ed2,#FFFFFF,image368,18.5,image405,10,NA,right,right,TRUE,549,NA,NA
1,1,P1,B,processing,#FFFFFF,#297a75,image405,10,image260,999,NA,left,left,TRUE,518,NA,NA
1,1,P2,B,processing,#2e7640,#FFFFFF,image163,8,image405,10,NA,right,right,TRUE,618,NA,NA
1,1,P2,B,processing,#87224c,#FFFFFF,image389,4.8,image405,10,NA,right,right,TRUE,550,NA,NA
1,1,P2,B,processing,#485593,#FFFFFF,image141,30,image405,10,NA,right,right,TRUE,547,NA,NA
1,1,P2,B,processing,#FFFFFF,#b0a421,image405,10,image339,20,NA,left,left,TRUE,517,NA,NA
1,1,P3,B,processing,#FFFFFF,#9e424b,image405,10,image104,6,NA,left,left,TRUE,476,NA,NA
1,1,P3,B,processing,#FFFFFF,#3c7d80,image405,10,image217,8.5,NA,left,left,TRUE,496,NA,NA
1,1,P3,B,processing,#53329f,#FFFFFF,image54,7,image405,10,NA,right,right,TRUE,517,NA,NA
1,1,P3,B,processing,#668736,#FFFFFF,image248,300,image405,10,NA,right,right,TRUE,531,NA,NA
1,1,P4,B,processing,#FFFFFF,#0cb4c0,image405,10,image338,12,NA,left,left,TRUE,510,NA,NA
1,1,P4,B,processing,#894f43,#FFFFFF,image158,150,image405,10,NA,right,right,TRUE,505,NA,NA
1,1,P4,B,processing,#FFFFFF,#51c62a,image405,10,image325,12.6,NA,left,left,TRUE,510,NA,NA
1,1,P4,B,processing,#521287,#FFFFFF,image401,12,image405,10,NA,right,right,TRUE,496,NA,NA
1,1,P5,B,processing,#FFFFFF,#7c9235,image405,10,image9,36,NA,left,left,TRUE,561,NA,NA
1,1,P5,B,processing,#370a9e,#FFFFFF,image394,10,image405,10,NA,right,right,TRUE,478,NA,NA
1,1,P5,B,processing,#FFFFFF,#8a4252,image405,10,image375,8,NA,left,left,TRUE,572,NA,NA
1,1,P5,B,processing,#FFFFFF,#3e8e73,image405,10,image257,170,NA,left,left,TRUE,720,NA,NA
1,1,P6,B,processing,#8c10c6,#FFFFFF,image125,5.1,image405,10,NA,right,right,TRUE,548,NA,NA
1,1,P6,B,processing,#FFFFFF,#4f7f96,image405,10,image164,13.5,NA,left,left,TRUE,476,NA,NA
1,1,P6,B,processing,#FFFFFF,#446837,image405,10,image132,15,NA,left,left,TRUE,610,NA,NA
1,1,P6,B,processing,#a55922,#FFFFFF,image218,13.5,image405,10,NA,right,right,TRUE,482,NA,NA
1,1,P7,B,processing,#977917,#FFFFFF,image360,19,image405,10,NA,right,right,TRUE,510,NA,NA
1,1,P7,B,processing,#28713e,#FFFFFF,image57,2.5,image405,10,NA,right,right,TRUE,491,NA,NA
1,1,P7,B,processing,#FFFFFF,#2a25b1,image405,10,image138,2,NA,left,left,TRUE,480,NA,NA
1,1,P7,B,processing,#FFFFFF,#e30d91,image405,10,image232,180,NA,left,left,TRUE,568,NA,NA
1,1,P8,B,processing,#FFFFFF,#49832a,image405,10,image83,140,NA,left,left,TRUE,481,NA,NA
1,1,P8,B,processing,#FFFFFF,#34a5b7,image405,10,image313,10,NA,left,left,TRUE,511,NA,NA
1,1,P8,B,processing,#b74424,#FFFFFF,image428,9,image405,10,NA,right,right,TRUE,481,NA,NA
1,1,P8,B,processing,#552277,#FFFFFF,image357,4.3,image405,10,NA,right,right,TRUE,525,NA,NA
1,1,P9,B,processing,#185ca5,#FFFFFF,image117,10,image405,10,NA,right,right,TRUE,463,NA,NA
1,1,P9,B,processing,#FFFFFF,#9d3caa,image405,10,image148,30,NA,left,left,TRUE,447,NA,NA
1,1,P9,B,processing,#27cc1e,#FFFFFF,image233,6.2,image405,10,NA,right,right,TRUE,471,NA,NA
1,1,P9,B,processing,#FFFFFF,#a2583f,image405,10,image27,6,NA,left,left,TRUE,482,NA,NA
1,1,P10,B,processing,#FFFFFF,#db570f,image405,10,image225,22,NA,left,left,TRUE,410,NA,NA
1,1,P10,B,processing,#772d7b,#FFFFFF,image415,20,image405,10,NA,right,right,TRUE,1056,NA,NA
1,1,P10,B,processing,#FFFFFF,#0f6fbd,image405,10,image274,3.9,NA,left,left,TRUE,443,NA,NA
1,1,P10,B,processing,#FFFFFF,#4e7a33,image405,10,image160,0.7,NA,left,left,TRUE,515,NA,NA
1,1,P11,B,processing,#FFFFFF,#21b08e,image405,10,image145,10,NA,left,left,TRUE,498,NA,NA
1,1,P11,B,processing,#737b3d,#FFFFFF,image230,999,image405,10,NA,right,right,TRUE,525,NA,NA
1,1,P11,B,processing,#FFFFFF,#824058,image405,10,image419,150,NA,left,left,TRUE,459,NA,NA
1,1,P11,B,processing,#FFFFFF,#3014b8,image405,10,image190,150,NA,left,left,TRUE,483,NA,NA
1,1,P12,B,processing,#FFFFFF,#7b4528,image405,10,image229,25,NA,left,left,TRUE,449,NA,NA
1,1,P12,B,processing,#FFFFFF,#33d416,image405,10,image96,180,NA,left,left,TRUE,511,NA,NA
1,1,P12,B,processing,#FFFFFF,#375381,image405,10,image81,2.7,NA,left,left,TRUE,517,NA,NA
1,1,P12,B,processing,#a124b2,#FFFFFF,image93,1.5,image405,10,NA,right,right,TRUE,524,NA,NA
1,1,P13,B,processing,#379a93,#FFFFFF,image72,3,image405,10,NA,right,right,TRUE,567,NA,NA
1,1,P13,B,processing,#ac3a2f,#FFFFFF,image31,150,image405,10,NA,right,right,TRUE,536,NA,NA
1,1,P13,B,processing,#FFFFFF,#6ec530,image405,10,image356,5.5,NA,left,left,TRUE,403,NA,NA
1,1,P13,B,processing,#FFFFFF,#4b2682,image405,10,image105,7.1,NA,left,left,TRUE,547,NA,NA
1,1,P14,B,processing,#FFFFFF,#d21449,image405,10,image414,55,NA,left,left,TRUE,456,NA,NA
1,1,P14,B,processing,#759410,#FFFFFF,image8,96,image405,10,NA,right,right,TRUE,496,NA,NA
1,1,P14,B,processing,#19be8f,#FFFFFF,image385,48,image405,10,NA,right,right,TRUE,537,NA,NA
1,1,P14,B,processing,#FFFFFF,#333370,image405,10,image327,6.3,NA,left,left,TRUE,383,NA,NA
1,1,P15,B,processing,#FFFFFF,#a53b0d,image405,10,image155,14.5,NA,left,left,TRUE,726,NA,NA
1,1,P15,B,processing,#FFFFFF,#1f78c1,image405,10,image20,4.5,NA,left,left,TRUE,420,NA,NA
1,1,P15,B,processing,#FFFFFF,#9c27ce,image405,10,image22,9.1,NA,left,left,TRUE,485,NA,NA
1,1,P15,B,processing,#4d9631,#FFFFFF,image297,7.9,image405,10,NA,right,right,TRUE,495,NA,NA
1,1,P16,B,processing,#FFFFFF,#e61453,image405,10,image332,12.2,NA,left,left,TRUE,453,NA,NA
1,1,P16,B,processing,#368172,#FFFFFF,image269,45,image405,10,NA,right,right,TRUE,501,NA,NA
1,1,P16,B,processing,#FFFFFF,#99a352,image405,10,image369,200,NA,left,left,TRUE,414,NA,NA
1,1,P16,B,processing,#4631af,#FFFFFF,image340,40,image405,10,NA,right,right,TRUE,463,NA,NA
1,1,P17,B,processing,#517138,#FFFFFF,image143,72,image405,10,NA,right,right,TRUE,512,NA,NA
1,1,P17,B,processing,#FFFFFF,#54318c,image405,10,image205,999,NA,left,left,TRUE,456,NA,NA
1,1,P17,B,processing,#33666b,#FFFFFF,image237,8.1,image405,10,NA,right,right,TRUE,508,NA,NA
1,1,P17,B,processing,#FFFFFF,#951825,image405,10,image261,9.5,NA,left,left,TRUE,501,NA,NA
1,1,P18,B,processing,#8e1a68,#FFFFFF,image363,11.3,image405,10,NA,right,right,TRUE,555,NA,NA
1,1,P18,B,processing,#85793d,#FFFFFF,image337,12.3,image405,10,NA,right,right,TRUE,593,NA,NA
1,1,P18,B,processing,#FFFFFF,#51a964,image405,10,image412,10.5,NA,left,left,TRUE,502,NA,NA
1,1,P18,B,processing,#FFFFFF,#1c3e82,image405,10,image25,40,NA,left,left,TRUE,624,NA,NA
1,1,P19,B,processing,#154384,#FFFFFF,image123,4.8,image405,10,NA,right,right,TRUE,481,NA,NA
1,1,P19,B,processing,#18913a,#FFFFFF,image151,10,image405,10,NA,right,right,TRUE,526,NA,NA
1,1,P19,B,processing,#FFFFFF,#d2a21e,image405,10,image371,7.1,NA,left,left,TRUE,430,NA,NA
1,1,P19,B,processing,#af0daf,#FFFFFF,image309,13.6,image405,10,NA,right,right,TRUE,504,NA,NA
1,1,P20,B,processing,#FFFFFF,#35ac72,image405,10,image382,23.2,NA,left,left,TRUE,493,NA,NA
1,1,P20,B,processing,#FFFFFF,#c3326a,image405,10,image133,300,NA,left,left,TRUE,691,NA,NA
1,1,P20,B,processing,#d0d327,#FFFFFF,image287,7,image405,10,NA,right,right,TRUE,496,NA,NA
1,1,P20,B,processing,#0c1cca,#FFFFFF,image24,80,image405,10,NA,right,right,TRUE,488,NA,NA
1,1,P21,B,processing,#FFFFFF,#287c86,image405,10,image225,22,NA,left,left,TRUE,451,NA,NA
1,1,P21,B,processing,#6a45b5,#FFFFFF,image50,8,image405,10,NA,right,right,TRUE,461,NA,NA
1,1,P21,B,processing,#FFFFFF,#9e0a0a,image405,10,image201,20,NA,left,left,TRUE,405,NA,NA
1,1,P21,B,processing,#FFFFFF,#588e1a,image405,10,image293,60.2,NA,left,left,TRUE,527,NA,NA
1,1,P22,B,processing,#FFFFFF,#2a7474,image405,10,image306,41.4,NA,left,left,TRUE,478,NA,NA
1,1,P22,B,processing,#FFFFFF,#8e9a51,image405,10,image108,40,NA,left,left,TRUE,660,NA,NA
1,1,P22,B,processing,#FFFFFF,#9d3440,image405,10,image159,120,NA,left,left,TRUE,508,NA,NA
1,1,P22,B,processing,#FFFFFF,#480ea4,image405,10,image290,8.5,NA,left,left,TRUE,504,NA,NA
1,1,P23,B,processing,#3c8b54,#FFFFFF,image411,3.9,image405,10,NA,right,right,TRUE,490,NA,NA
1,1,P23,B,processing,#9a893c,#FFFFFF,image113,210,image405,10,NA,right,right,TRUE,547,NA,NA
1,1,P23,B,processing,#FFFFFF,#68364b,image405,10,image47,12,NA,left,left,TRUE,425,NA,NA
1,1,P23,B,processing,#FFFFFF,#464b81,image405,10,image45,13,NA,left,left,TRUE,477,NA,NA
1,1,P24,B,processing,#7629ae,#FFFFFF,image422,23,image405,10,NA,right,right,TRUE,487,NA,NA
1,1,P24,B,processing,#FFFFFF,#9f1416,image405,10,image309,13.6,NA,left,left,TRUE,487,NA,NA
1,1,P24,B,processing,#8bbb2a,#FFFFFF,image169,999,image405,10,NA,right,right,TRUE,556,NA,NA
1,1,P24,B,processing,#189179,#FFFFFF,image182,800,image405,10,NA,right,right,TRUE,1064,NA,NA
1,1,P25,B,processing,#FFFFFF,#38636b,image405,10,image73,1.6,NA,left,left,TRUE,473,NA,NA
1,1,P25,B,processing,#FFFFFF,#55cd18,image405,10,image324,1.4,NA,left,left,TRUE,512,NA,NA
1,1,P25,B,processing,#FFFFFF,#7d3ebb,image405,10,image192,20,NA,left,left,TRUE,494,NA,NA
1,1,P25,B,processing,#cd2718,#FFFFFF,image326,1.9,image405,10,NA,right,right,TRUE,504,NA,NA
1,1,1,B,memory-resp,#FFFFFF,#2bb679,image405,10,image399,9,NA,left,left,TRUE,703,image399,image405
1,1,1,B,memory-resp,#FFFFFF,#534baf,image405,10,image98,15,NA,left,left,TRUE,740,image98,image405
1,1,1,B,memory-resp,#8d1149,#FFFFFF,image9,36,image405,10,NA,right,right,TRUE,658,image9,image405
1,1,1,B,memory-resp,#FFFFFF,#7d8316,image405,10,image257,170,NA,left,left,TRUE,1146,image257,image405
1,1,1,B,retrieval,NA,NA,NA,NA,NA,NA,image257,NA,image257,TRUE,882,image257,image405
1,1,1,B,retrieval,NA,NA,NA,NA,NA,NA,image98,NA,image9,FALSE,5286,image98,image405
1,1,1,B,retrieval,NA,NA,NA,NA,NA,NA,image9,NA,image399,FALSE,8025,image9,image405
1,1,1,B,retrieval,NA,NA,NA,NA,NA,NA,image399,NA,image98,FALSE,1184,image399,image405
1,1,2,B,memory-resp,#FFFFFF,#387544,image405,10,image56,80,NA,left,left,TRUE,628,image56,image405
1,1,2,B,memory-resp,#FFFFFF,#c29929,image405,10,image190,150,NA,left,left,TRUE,1591,image190,image405
1,1,2,B,memory-resp,#FFFFFF,#485999,image405,10,image280,20,NA,left,left,TRUE,1703,image280,image405
1,1,2,B,memory-resp,#7e2060,#FFFFFF,image413,153,image405,10,NA,right,right,TRUE,1017,image413,image405
1,1,2,B,retrieval,NA,NA,NA,NA,NA,NA,image56,NA,image56,TRUE,2580,image56,image405
1,1,2,B,retrieval,NA,NA,NA,NA,NA,NA,image280,NA,image280,TRUE,1344,image280,image405
1,1,2,B,retrieval,NA,NA,NA,NA,NA,NA,image413,NA,image413,TRUE,1504,image413,image405
1,1,2,B,retrieval,NA,NA,NA,NA,NA,NA,image190,NA,image190,TRUE,3170,image190,image405
1,1,3,B,memory-resp,#3d856d,#FFFFFF,image59,0.8,image405,10,NA,right,right,TRUE,972,image59,image405
1,1,3,B,memory-resp,#cfcf26,#FFFFFF,image259,30,image405,10,NA,right,right,TRUE,1077,image259,image405
1,1,3,B,memory-resp,#FFFFFF,#44377b,image405,10,image394,10,NA,left,left,TRUE,884,image394,image405
1,1,3,B,memory-resp,#7c4156,#FFFFFF,image256,10.2,image405,10,NA,right,right,TRUE,1093,image256,image405
1,1,3,B,retrieval,NA,NA,NA,NA,NA,NA,image59,NA,image59,TRUE,1828,image59,image405
1,1,3,B,retrieval,NA,NA,NA,NA,NA,NA,image394,NA,image259,FALSE,2571,image394,image405
1,1,3,B,retrieval,NA,NA,NA,NA,NA,NA,image256,NA,image394,FALSE,6709,image256,image405
1,1,3,B,retrieval,NA,NA,NA,NA,NA,NA,image259,NA,image256,FALSE,3387,image259,image405
1,1,4,B,memory-resp,#1a9e91,#FFFFFF,image132,15,image405,10,NA,right,right,TRUE,1087,image132,image405
1,1,4,B,memory-resp,#718613,#FFFFFF,image416,400,image405,10,NA,right,NULL,FALSE,NA,image416,image405
1,1,4,B,memory-resp,#FFFFFF,#a30f4d,image405,10,image403,12,NA,left,left,TRUE,673,image403,image405
1,1,4,B,memory-resp,#FFFFFF,#3e0dc5,image405,10,image394,10,NA,left,left,TRUE,622,image394,image405
1,1,4,B,retrieval,NA,NA,NA,NA,NA,NA,image394,NA,image394,TRUE,1150,image394,image405
1,1,4,B,retrieval,NA,NA,NA,NA,NA,NA,image416,NA,image416,TRUE,4845,image416,image405
1,1,4,B,retrieval,NA,NA,NA,NA,NA,NA,image132,NA,image132,TRUE,1376,image132,image405
1,1,4,B,retrieval,NA,NA,NA,NA,NA,NA,image403,NA,image403,TRUE,2561,image403,image405
1,1,5,B,memory-resp,#dd1399,#FFFFFF,image64,960,image405,10,NA,right,right,TRUE,904,image64,image405
1,1,5,B,memory-resp,#26c04c,#FFFFFF,image392,160,image405,10,NA,right,right,TRUE,727,image392,image405
1,1,5,B,memory-resp,#413b97,#FFFFFF,image222,200,image405,10,NA,right,right,TRUE,718,image222,image405
1,1,5,B,memory-resp,#ada41f,#FFFFFF,image290,8.5,image405,10,NA,right,right,TRUE,698,image290,image405
1,1,5,B,retrieval,NA,NA,NA,NA,NA,NA,image222,NA,image222,TRUE,1553,image222,image405
1,1,5,B,retrieval,NA,NA,NA,NA,NA,NA,image290,NA,image290,TRUE,864,image290,image405
1,1,5,B,retrieval,NA,NA,NA,NA,NA,NA,image64,NA,image49,FALSE,2971,image64,image405
1,1,5,B,retrieval,NA,NA,NA,NA,NA,NA,image392,NA,image392,TRUE,2305,image392,image405
1,1,6,B,memory-resp,#1a3293,#FFFFFF,image134,7,image405,10,NA,right,right,TRUE,496,image134,image405
1,1,6,B,memory-resp,#FFFFFF,#6d542c,image405,10,image225,22,NA,left,left,TRUE,723,image225,image405
1,1,6,B,memory-resp,#c11fa6,#FFFFFF,image364,4.2,image405,10,NA,right,right,TRUE,1528,image364,image405
1,1,6,B,memory-resp,#FFFFFF,#439d4c,image405,10,image147,3,NA,left,left,TRUE,1418,image147,image405
1,1,6,B,retrieval,NA,NA,NA,NA,NA,NA,image225,NA,image225,TRUE,5870,image225,image405
1,1,6,B,retrieval,NA,NA,NA,NA,NA,NA,image364,NA,image364,TRUE,3145,image364,image405
1,1,6,B,retrieval,NA,NA,NA,NA,NA,NA,image147,NA,image384,FALSE,6054,image147,image405
1,1,6,B,retrieval,NA,NA,NA,NA,NA,NA,image134,NA,image134,TRUE,671,image134,image405
1,1,7,B,memory-resp,#FFFFFF,#285371,image405,10,image308,0.8,NA,left,left,TRUE,717,image308,image405
1,1,7,B,memory-resp,#FFFFFF,#26dc18,image405,10,image65,450,NA,left,left,TRUE,950,image65,image405
1,1,7,B,memory-resp,#FFFFFF,#8c2da9,image405,10,image320,170,NA,left,left,TRUE,849,image320,image405
1,1,7,B,memory-resp,#984d43,#FFFFFF,image427,40,image405,10,NA,right,right,TRUE,913,image427,image405
1,1,7,B,retrieval,NA,NA,NA,NA,NA,NA,image65,NA,image65,TRUE,1576,image65,image405
1,1,7,B,retrieval,NA,NA,NA,NA,NA,NA,image308,NA,image308,TRUE,1249,image308,image405
1,1,7,B,retrieval,NA,NA,NA,NA,NA,NA,image427,NA,image427,TRUE,2303,image427,image405
1,1,7,B,retrieval,NA,NA,NA,NA,NA,NA,image320,NA,image320,TRUE,3296,image320,image405
1,1,8,B,memory-resp,#FFFFFF,#2d7cb9,image405,10,image264,18.6,NA,left,left,TRUE,819,image264,image405
1,1,8,B,memory-resp,#3b9144,#FFFFFF,image123,4.8,image405,10,NA,right,right,TRUE,584,image123,image405
1,1,8,B,memory-resp,#FFFFFF,#816328,image405,10,image346,950,NA,left,left,TRUE,836,image346,image405
1,1,8,B,memory-resp,#FFFFFF,#954b88,image405,10,image307,28,NA,left,left,TRUE,2970,image307,image405
1,1,8,B,retrieval,NA,NA,NA,NA,NA,NA,image346,NA,image346,TRUE,3572,image346,image405
1,1,8,B,retrieval,NA,NA,NA,NA,NA,NA,image264,NA,image264,TRUE,1711,image264,image405
1,1,8,B,retrieval,NA,NA,NA,NA,NA,NA,image123,NA,image123,TRUE,718,image123,image405
1,1,8,B,retrieval,NA,NA,NA,NA,NA,NA,image307,NA,image307,TRUE,2713,image307,image405
1,1,9,B,memory-resp,#2aa7a3,#FFFFFF,image128,7.7,image405,10,NA,right,right,TRUE,720,image128,image405
1,1,9,B,memory-resp,#FFFFFF,#9cc819,image405,10,image63,800,NA,left,left,TRUE,804,image63,image405
1,1,9,B,memory-resp,#841522,#FFFFFF,image172,8,image405,10,NA,right,right,TRUE,1225,image172,image405
1,1,9,B,memory-resp,#594587,#FFFFFF,image177,15,image405,10,NA,right,right,TRUE,1533,image177,image405
1,1,9,B,retrieval,NA,NA,NA,NA,NA,NA,image128,NA,image128,TRUE,1319,image128,image405
1,1,9,B,retrieval,NA,NA,NA,NA,NA,NA,image63,NA,image63,TRUE,3090,image63,image405
1,1,9,B,retrieval,NA,NA,NA,NA,NA,NA,image177,NA,image177,TRUE,2866,image177,image405
1,1,9,B,retrieval,NA,NA,NA,NA,NA,NA,image172,NA,image172,TRUE,463,image172,image405
1,1,10,B,memory-resp,#80d327,#FFFFFF,image252,12,image405,10,NA,right,right,TRUE,1190,image252,image405
1,1,10,B,memory-resp,#5d3777,#FFFFFF,image297,7.9,image405,10,NA,right,right,TRUE,815,image297,image405
1,1,10,B,memory-resp,#FFFFFF,#199f98,image405,10,image72,3,NA,left,left,TRUE,673,image72,image405
1,1,10,B,memory-resp,#ad3425,#FFFFFF,image290,8.5,image405,10,NA,right,right,TRUE,730,image290,image405
1,1,10,B,retrieval,NA,NA,NA,NA,NA,NA,image297,NA,image297,TRUE,3865,image297,image405
1,1,10,B,retrieval,NA,NA,NA,NA,NA,NA,image290,NA,image290,TRUE,1344,image290,image405
1,1,10,B,retrieval,NA,NA,NA,NA,NA,NA,image72,NA,image72,TRUE,6943,image72,image405
1,1,10,B,retrieval,NA,NA,NA,NA,NA,NA,image252,NA,image252,TRUE,1712,image252,image405
1,1,11,B,memory-resp,#FFFFFF,#25598e,image405,10,image358,16.2,NA,left,left,TRUE,880,image358,image405
1,1,11,B,memory-resp,#FFFFFF,#a2842a,image405,10,image401,12,NA,left,left,TRUE,681,image401,image405
1,1,11,B,memory-resp,#FFFFFF,#b036ae,image405,10,image215,153,NA,left,left,TRUE,1194,image215,image405
1,1,11,B,memory-resp,#FFFFFF,#2fbc3b,image405,10,image145,10,NA,left,left,TRUE,1097,image145,image405
1,1,11,B,retrieval,NA,NA,NA,NA,NA,NA,image358,NA,image358,TRUE,4686,image358,image405
1,1,11,B,retrieval,NA,NA,NA,NA,NA,NA,image145,NA,image145,TRUE,1824,image145,image405
1,1,11,B,retrieval,NA,NA,NA,NA,NA,NA,image215,NA,image215,TRUE,829,image215,image405
1,1,11,B,retrieval,NA,NA,NA,NA,NA,NA,image401,NA,image401,TRUE,5014,image401,image405
1,1,12,B,memory-resp,#FFFFFF,#7f4280,image405,10,image57,2.5,NA,left,left,TRUE,1038,image57,image405
1,1,12,B,memory-resp,#366b2e,#FFFFFF,image28,10,image405,10,NA,right,right,TRUE,795,image28,image405
1,1,12,B,memory-resp,#af7723,#FFFFFF,image263,5.4,image405,10,NA,right,right,TRUE,1173,image263,image405
1,1,12,B,memory-resp,#FFFFFF,#1759b0,image405,10,image356,5.5,NA,left,left,TRUE,1037,image356,image405
1,1,12,B,retrieval,NA,NA,NA,NA,NA,NA,image28,NA,image57,FALSE,3027,image28,image405
1,1,12,B,retrieval,NA,NA,NA,NA,NA,NA,image263,NA,image263,TRUE,5750,image263,image405
1,1,12,B,retrieval,NA,NA,NA,NA,NA,NA,image57,NA,image356,FALSE,1216,image57,image405
1,1,12,B,retrieval,NA,NA,NA,NA,NA,NA,image356,NA,image28,FALSE,873,image356,image405
1,1,13,B,memory-resp,#FFFFFF,#61a20b,image405,10,image1,7,NA,left,left,TRUE,505,image1,image405
1,1,13,B,memory-resp,#aa4b4c,#FFFFFF,image419,150,image405,10,NA,right,right,TRUE,1146,image419,image405
1,1,13,B,memory-resp,#7a25d4,#FFFFFF,image218,13.5,image405,10,NA,right,right,TRUE,1068,image218,image405
1,1,13,B,memory-resp,#14a98b,#FFFFFF,image211,21.3,image405,10,NA,right,right,TRUE,1343,image211,image405
1,1,13,B,retrieval,NA,NA,NA,NA,NA,NA,image419,NA,image419,TRUE,1573,image419,image405
1,1,13,B,retrieval,NA,NA,NA,NA,NA,NA,image218,NA,image218,TRUE,1743,image218,image405
1,1,13,B,retrieval,NA,NA,NA,NA,NA,NA,image1,NA,image1,TRUE,1891,image1,image405
1,1,13,B,retrieval,NA,NA,NA,NA,NA,NA,image211,NA,image211,TRUE,1503,image211,image405
1,1,14,B,memory-resp,#FFFFFF,#aa1d66,image405,10,image253,50,NA,left,left,TRUE,1066,image253,image405
1,1,14,B,memory-resp,#FFFFFF,#3c30c0,image405,10,image255,4.5,NA,left,left,TRUE,1668,image255,image405
1,1,14,B,memory-resp,#2a7a46,#FFFFFF,image375,8,image405,10,NA,right,right,TRUE,1184,image375,image405
1,1,14,B,memory-resp,#857a32,#FFFFFF,image259,30,image405,10,NA,right,right,TRUE,1047,image259,image405
1,1,14,B,retrieval,NA,NA,NA,NA,NA,NA,image259,NA,image259,TRUE,1648,image259,image405
1,1,14,B,retrieval,NA,NA,NA,NA,NA,NA,image253,NA,image253,TRUE,3394,image253,image405
1,1,14,B,retrieval,NA,NA,NA,NA,NA,NA,image375,NA,image375,TRUE,4002,image375,image405
1,1,14,B,retrieval,NA,NA,NA,NA,NA,NA,image255,NA,image255,TRUE,2825,image255,image405
1,1,15,B,memory-resp,#2cc997,#FFFFFF,image14,1,image405,10,NA,right,right,TRUE,1040,image14,image405
1,1,15,B,memory-resp,#992e4e,#FFFFFF,image251,10,image405,10,NA,right,right,TRUE,761,image251,image405
1,1,15,B,memory-resp,#bccb15,#FFFFFF,image206,14,image405,10,NA,right,right,TRUE,978,image206,image405
1,1,15,B,memory-resp,#FFFFFF,#40237b,image405,10,image398,150,NA,left,left,TRUE,987,image398,image405
1,1,15,B,retrieval,NA,NA,NA,NA,NA,NA,image398,NA,image398,TRUE,1428,image398,image405
1,1,15,B,retrieval,NA,NA,NA,NA,NA,NA,image251,NA,image251,TRUE,3986,image251,image405
1,1,15,B,retrieval,NA,NA,NA,NA,NA,NA,image206,NA,image206,TRUE,1543,image206,image405
1,1,15,B,retrieval,NA,NA,NA,NA,NA,NA,image14,NA,image14,TRUE,1625,image14,image405
1,2,P1,D,processing,#FFFFFF,#a12b60,image216,500,image79,170,NA,left,right,FALSE,1158,NA,NA
1,2,P1,D,processing,#ab9a26,#FFFFFF,image165,6.6,image431,14.8,NA,right,right,TRUE,1250,NA,NA
1,2,P1,D,processing,#404991,#FFFFFF,image111,8,image321,40,NA,right,right,TRUE,1070,NA,NA
1,2,P1,D,processing,#13c35f,#FFFFFF,image194,240,image371,7.1,NA,left,left,TRUE,1299,NA,NA
1,2,P2,D,processing,#656334,#FFFFFF,image419,150,image169,999,NA,right,right,TRUE,990,NA,NA
1,2,P2,D,processing,#FFFFFF,#594488,image309,13.6,image138,2,NA,left,left,TRUE,1416,NA,NA
1,2,P2,D,processing,#FFFFFF,#17824d,image144,60,image331,1.7,NA,left,left,TRUE,1250,NA,NA
1,2,P2,D,processing,#FFFFFF,#993861,image395,8.2,image355,443.2,NA,right,right,TRUE,1081,NA,NA
1,2,P3,D,processing,#FFFFFF,#b2a238,image230,999,image193,85,NA,left,left,TRUE,1324,NA,NA
1,2,P3,D,processing,#428f4f,#FFFFFF,image300,800,image30,19.4,NA,left,left,TRUE,948,NA,NA
1,2,P3,D,processing,#FFFFFF,#8b1377,image262,7.5,image130,250,NA,right,right,TRUE,1641,NA,NA
1,2,P3,D,processing,#FFFFFF,#363f81,image142,1,image390,36.8,NA,right,right,TRUE,1471,NA,NA
1,2,P4,D,processing,#92497f,#FFFFFF,image273,999,image234,24,NA,left,left,TRUE,964,NA,NA
1,2,P4,D,processing,#FFFFFF,#0ea048,image353,5,image35,999,NA,right,right,TRUE,828,NA,NA
1,2,P4,D,processing,#FFFFFF,#b18e35,image174,999,image390,36.8,NA,left,left,TRUE,992,NA,NA
1,2,P4,D,processing,#FFFFFF,#3850ad,image288,34,image27,6,NA,left,left,TRUE,1534,NA,NA
1,2,P5,D,processing,#9c2b52,#FFFFFF,image61,6,image234,24,NA,right,right,TRUE,907,NA,NA
1,2,P5,D,processing,#8f9744,#FFFFFF,image300,800,image101,180,NA,left,left,TRUE,857,NA,NA
1,2,P5,D,processing,#FFFFFF,#11c097,image21,20,image257,170,NA,right,right,TRUE,1150,NA,NA
1,2,P5,D,processing,#FFFFFF,#3f369b,image321,40,image145,10,NA,left,left,TRUE,803,NA,NA
1,2,P6,D,processing,#FFFFFF,#308d5b,image124,170,image414,55,NA,left,left,TRUE,1107,NA,NA
1,2,P6,D,processing,#2c306d,#FFFFFF,image29,30,image293,60.2,NA,right,right,TRUE,1270,NA,NA
1,2,P6,D,processing,#FFFFFF,#ad1461,image83,140,image338,12,NA,left,left,TRUE,1037,NA,NA
1,2,P6,D,processing,#FFFFFF,#b3a632,image385,48,image6,20,NA,left,left,TRUE,1254,NA,NA
1,2,P7,D,processing,#ac760c,#FFFFFF,image140,2,image142,1,NA,left,left,TRUE,1277,NA,NA
1,2,P7,D,processing,#FFFFFF,#17ab3f,image217,8.5,image120,450,NA,right,right,TRUE,1009,NA,NA
1,2,P7,D,processing,#FFFFFF,#3b5081,image146,95,image263,5.4,NA,left,left,TRUE,1361,NA,NA
1,2,P7,D,processing,#9a477e,#FFFFFF,image401,12,image202,2.9,NA,left,left,TRUE,1216,NA,NA
1,2,P8,D,processing,#FFFFFF,#30d624,image171,9.6,image345,60,NA,right,right,TRUE,1135,NA,NA
1,2,P8,D,processing,#FFFFFF,#1274b5,image393,204,image407,5,NA,left,left,TRUE,911,NA,NA
1,2,P8,D,processing,#8c2895,#FFFFFF,image327,6.3,image284,200,NA,right,right,TRUE,2126,NA,NA
1,2,P8,D,processing,#FFFFFF,#966a45,image245,10.5,image235,3.5,NA,left,left,TRUE,1151,NA,NA
1,2,P9,D,processing,#2b9c85,#FFFFFF,image8,96,image151,10,NA,left,right,FALSE,1171,NA,NA
1,2,P9,D,processing,#891532,#FFFFFF,image351,450,image61,6,NA,left,left,TRUE,1229,NA,NA
1,2,P9,D,processing,#6a8f14,#FFFFFF,image214,80,image172,8,NA,left,left,TRUE,914,NA,NA
1,2,P9,D,processing,#FFFFFF,#5b34a2,image18,18,image9,36,NA,right,right,TRUE,2156,NA,NA
1,2,P10,D,processing,#FFFFFF,#3189af,image72,3,image424,52.2,NA,right,right,TRUE,856,NA,NA
1,2,P10,D,processing,#3e7934,#FFFFFF,image198,6.8,image102,700,NA,right,right,TRUE,1061,NA,NA
1,2,P10,D,processing,#6a437f,#FFFFFF,image28,10,image144,60,NA,right,right,TRUE,1386,NA,NA
1,2,P10,D,processing,#FFFFFF,#7a3824,image233,6.2,image118,13.6,NA,right,right,TRUE,1102,NA,NA
1,2,P11,D,processing,#2472a3,#FFFFFF,image408,7,image425,700,NA,right,right,TRUE,1092,NA,NA
1,2,P11,D,processing,#FFFFFF,#8f48a3,image305,0.2,image182,800,NA,right,right,TRUE,873,NA,NA
1,2,P11,D,processing,#FFFFFF,#4c8d49,image31,150,image88,3.5,NA,left,left,TRUE,882,NA,NA
1,2,P11,D,processing,#684b37,#FFFFFF,image89,35,image177,15,NA,left,right,FALSE,1799,NA,NA
1,2,P12,D,processing,#791986,#FFFFFF,image201,20,image174,999,NA,right,right,TRUE,1011,NA,NA
1,2,P12,D,processing,#cb6420,#FFFFFF,image9,36,image239,6,NA,left,left,TRUE,1168,NA,NA
1,2,P12,D,processing,#FFFFFF,#21ab38,image52,800,image393,204,NA,left,left,TRUE,1094,NA,NA
1,2,P12,D,processing,#FFFFFF,#0f3c8f,image254,140,image216,500,NA,right,right,TRUE,1255,NA,NA
1,2,P13,D,processing,#900967,#FFFFFF,image78,999,image31,150,NA,left,left,TRUE,822,NA,NA
1,2,P13,D,processing,#6c5333,#FFFFFF,image215,153,image172,8,NA,left,left,TRUE,1526,NA,NA
1,2,P13,D,processing,#397f51,#FFFFFF,image145,10,image402,30,NA,right,right,TRUE,1074,NA,NA
1,2,P13,D,processing,#19319f,#FFFFFF,image395,8.2,image240,19,NA,right,right,TRUE,1296,NA,NA
1,2,P14,D,processing,#FFFFFF,#4b7c91,image178,999,image160,0.7,NA,left,left,TRUE,773,NA,NA
1,2,P14,D,processing,#36ce22,#FFFFFF,image26,45,image32,105,NA,right,right,TRUE,962,NA,NA
1,2,P14,D,processing,#FFFFFF,#8432a4,image64,960,image60,165,NA,left,left,TRUE,848,NA,NA
1,2,P14,D,processing,#FFFFFF,#c1601a,image182,800,image218,13.5,NA,left,left,TRUE,1059,NA,NA
1,2,P15,D,processing,#FFFFFF,#69d11a,image415,20,image83,140,NA,right,right,TRUE,998,NA,NA
1,2,P15,D,processing,#4a2d76,#FFFFFF,image133,300,image296,7,NA,left,left,TRUE,1383,NA,NA
1,2,P15,D,processing,#44a7a7,#FFFFFF,image349,5.8,image385,48,NA,right,right,TRUE,1063,NA,NA
1,2,P15,D,processing,#FFFFFF,#c6180c,image79,170,image345,60,NA,left,right,FALSE,793,NA,NA
1,2,P16,D,processing,#FFFFFF,#5c9442,image329,8,image136,33,NA,right,right,TRUE,1051,NA,NA
1,2,P16,D,processing,#6e433a,#FFFFFF,image401,12,image186,999,NA,right,right,TRUE,1278,NA,NA
1,2,P16,D,processing,#7335b6,#FFFFFF,image71,8,image142,1,NA,left,left,TRUE,999,NA,NA
1,2,P16,D,processing,#FFFFFF,#26b5c5,image189,400,image296,7,NA,left,left,TRUE,946,NA,NA
1,2,P17,D,processing,#80902c,#FFFFFF,image17,7,image380,30.8,NA,right,right,TRUE,916,NA,NA
1,2,P17,D,processing,#FFFFFF,#9f0f65,image385,48,image234,24,NA,left,left,TRUE,879,NA,NA
1,2,P17,D,processing,#11d05d,#FFFFFF,image230,999,image199,7,NA,left,left,TRUE,886,NA,NA
1,2,P17,D,processing,#FFFFFF,#422d95,image100,9,image211,21.3,NA,right,right,TRUE,1730,NA,NA
1,2,P18,D,processing,#76682e,#FFFFFF,image146,95,image295,7.1,NA,left,left,TRUE,845,NA,NA
1,2,P18,D,processing,#95236f,#FFFFFF,image148,30,image353,5,NA,left,left,TRUE,1275,NA,NA
1,2,P18,D,processing,#51a96a,#FFFFFF,image220,0.5,image182,800,NA,right,right,TRUE,1076,NA,NA
1,2,P18,D,processing,#FFFFFF,#121a8c,image250,34,image169,999,NA,right,right,TRUE,902,NA,NA
1,2,P19,D,processing,#1a36c1,#FFFFFF,image98,15,image148,30,NA,right,right,TRUE,1119,NA,NA
1,2,P19,D,processing,#FFFFFF,#917846,image40,999,image109,8,NA,left,left,TRUE,1293,NA,NA
1,2,P19,D,processing,#FFFFFF,#de12c9,image178,999,image207,24,NA,left,left,TRUE,846,NA,NA
1,2,P19,D,processing,#FFFFFF,#24a337,image308,0.8,image43,18,NA,right,right,TRUE,1289,NA,NA
1,2,P20,D,processing,#FFFFFF,#44829c,image173,999,image248,300,NA,left,left,TRUE,818,NA,NA
1,2,P20,D,processing,#a86f3e,#FFFFFF,image14,1,image404,7.5,NA,right,right,TRUE,1560,NA,NA
1,2,P20,D,processing,#FFFFFF,#6c1a7f,image315,1.5,image72,3,NA,right,left,FALSE,2233,NA,NA
1,2,P20,D,processing,#376737,#FFFFFF,image57,2.5,image330,180,NA,right,right,TRUE,1374,NA,NA
1,2,P21,D,processing,#671d87,#FFFFFF,image414,55,image115,9.4,NA,left,left,TRUE,1097,NA,NA
1,2,P21,D,processing,#459d2a,#FFFFFF,image32,105,image298,12.4,NA,left,left,TRUE,805,NA,NA
1,2,P21,D,processing,#FFFFFF,#108294,image111,8,image82,95,NA,right,right,TRUE,947,NA,NA
1,2,P21,D,processing,#FFFFFF,#98653e,image107,200,image139,9.6,NA,left,left,TRUE,1029,NA,NA
1,2,P22,D,processing,#679843,#FFFFFF,image240,19,image285,240,NA,right,left,FALSE,888,NA,NA
1,2,P22,D,processing,#FFFFFF,#2498c2,image292,6.8,image159,120,NA,right,right,TRUE,1133,NA,NA
1,2,P22,D,processing,#a03da9,#FFFFFF,image199,7,image39,16,NA,right,right,TRUE,1402,NA,NA
1,2,P22,D,processing,#FFFFFF,#86553c,image328,40,image339,20,NA,left,right,FALSE,2185,NA,NA
1,2,P23,D,processing,#aa0dc9,#FFFFFF,image396,34,image64,960,NA,right,right,TRUE,890,NA,NA
1,2,P23,D,processing,#FFFFFF,#cf4d26,image55,75,image223,170,NA,right,right,TRUE,957,NA,NA
1,2,P23,D,processing,#48789d,#FFFFFF,image169,999,image257,170,NA,left,left,TRUE,765,NA,NA
1,2,P23,D,processing,#3a8a33,#FFFFFF,image327,6.3,image141,30,NA,right,right,TRUE,1036,NA,NA
1,2,P24,D,processing,#FFFFFF,#226d77,image331,1.7,image182,800,NA,right,right,TRUE,816,NA,NA
1,2,P24,D,processing,#FFFFFF,#c0240c,image347,999,image31,150,NA,left,left,TRUE,927,NA,NA
1,2,P24,D,processing,#940ab2,#FFFFFF,image60,165,image290,8.5,NA,left,left,TRUE,984,NA,NA
1,2,P24,D,processing,#559226,#FFFFFF,image416,400,image16,999,NA,right,left,FALSE,981,NA,NA
1,2,P25,D,processing,#FFFFFF,#448b32,image3,12,image32,105,NA,right,right,TRUE,733,NA,NA
1,2,P25,D,processing,#6c1895,#FFFFFF,image110,8,image26,45,NA,right,left,FALSE,1105,NA,NA
1,2,P25,D,processing,#c81f19,#FFFFFF,image1,7,image339,20,NA,right,right,TRUE,1713,NA,NA
1,2,P25,D,processing,#2ea2cc,#FFFFFF,image17,7,image30,19.4,NA,right,right,TRUE,1752,NA,NA
1,2,1,D,memory-resp,#FFFFFF,#8f199f,image338,12,image14,1,NA,left,left,TRUE,1859,image14,image338
1,2,1,D,memory-resp,#425b9e,#FFFFFF,image6,20,image233,6.2,NA,left,left,TRUE,2288,image6,image6
1,2,1,D,memory-resp,#FFFFFF,#22962c,image298,12.4,image357,4.3,NA,left,NULL,FALSE,NA,image357,image298
1,2,1,D,memory-resp,#FFFFFF,#ae7519,image303,20,image294,2.5,NA,left,left,TRUE,1632,image294,image303
1,2,1,D,retrieval,NA,NA,NA,NA,NA,NA,image6,NA,image298,FALSE,2873,image6,image338
1,2,1,D,retrieval,NA,NA,NA,NA,NA,NA,image294,NA,image303,FALSE,3626,image294,image338
1,2,1,D,retrieval,NA,NA,NA,NA,NA,NA,image357,NA,image6,FALSE,2898,image357,image338
1,2,1,D,retrieval,NA,NA,NA,NA,NA,NA,image14,NA,image233,FALSE,4059,image14,image338
1,2,2,D,memory-resp,#FFFFFF,#3a529c,image173,999,image65,450,NA,left,left,TRUE,1531,image65,image173
1,2,2,D,memory-resp,#aa4b81,#FFFFFF,image21,20,image301,300,NA,right,right,TRUE,1695,image21,image301
1,2,2,D,memory-resp,#287138,#FFFFFF,image78,999,image193,85,NA,left,left,TRUE,1601,image78,image78
1,2,2,D,memory-resp,#FFFFFF,#8b9118,image425,700,image223,170,NA,left,right,FALSE,2550,image223,image425
1,2,2,D,retrieval,NA,NA,NA,NA,NA,NA,image21,NA,image173,FALSE,6635,image21,image173
1,2,2,D,retrieval,NA,NA,NA,NA,NA,NA,image78,NA,image78,TRUE,4308,image78,image173
1,2,2,D,retrieval,NA,NA,NA,NA,NA,NA,image65,NA,image223,FALSE,3419,image65,image173
1,2,2,D,retrieval,NA,NA,NA,NA,NA,NA,image223,NA,image193,FALSE,4683,image223,image173
1,2,3,D,memory-resp,#4dac68,#FFFFFF,image108,40,image215,153,NA,right,right,TRUE,1704,image108,image215
1,2,3,D,memory-resp,#cd23a2,#FFFFFF,image65,450,image415,20,NA,left,NULL,FALSE,NA,image65,image65
1,2,3,D,memory-resp,#496dab,#FFFFFF,image164,13.5,image222,200,NA,right,right,TRUE,1814,image164,image222
1,2,3,D,memory-resp,#FFFFFF,#a29553,image302,11,image389,4.8,NA,left,left,TRUE,2370,image389,image302
1,2,3,D,retrieval,NA,NA,NA,NA,NA,NA,image108,NA,image65,FALSE,4679,image108,image215
1,2,3,D,retrieval,NA,NA,NA,NA,NA,NA,image65,NA,image302,FALSE,3723,image65,image215
1,2,3,D,retrieval,NA,NA,NA,NA,NA,NA,image164,NA,image222,FALSE,3547,image164,image215
1,2,3,D,retrieval,NA,NA,NA,NA,NA,NA,image389,NA,image215,FALSE,4808,image389,image215
1,2,4,D,memory-resp,#b83244,#FFFFFF,image159,120,image402,30,NA,left,left,TRUE,2273,image159,image159
1,2,4,D,memory-resp,#708745,#FFFFFF,image4,7,image334,25,NA,right,right,TRUE,1588,image4,image334
1,2,4,D,memory-resp,#FFFFFF,#3f3c72,image407,5,image273,999,NA,right,right,TRUE,997,image273,image273
1,2,4,D,memory-resp,#1a9973,#FFFFFF,image106,30,image353,5,NA,left,left,TRUE,1597,image106,image106
1,2,4,D,retrieval,NA,NA,NA,NA,NA,NA,image273,NA,image273,TRUE,3655,image273,image159
1,2,4,D,retrieval,NA,NA,NA,NA,NA,NA,image4,NA,image4,TRUE,5335,image4,image159
1,2,4,D,retrieval,NA,NA,NA,NA,NA,NA,image106,NA,image353,FALSE,4501,image106,image159
1,2,4,D,retrieval,NA,NA,NA,NA,NA,NA,image159,NA,image159,TRUE,4853,image159,image159
1,2,5,D,memory-resp,#64944c,#FFFFFF,image429,40,image31,150,NA,right,right,TRUE,1964,image429,image31
1,2,5,D,memory-resp,#ad31c9,#FFFFFF,image360,19,image102,700,NA,right,right,TRUE,1080,image360,image102
1,2,5,D,memory-resp,#FFFFFF,#873e31,image119,0.4,image3,12,NA,right,right,TRUE,1727,image3,image3
1,2,5,D,memory-resp,#24657b,#FFFFFF,image199,7,image150,17.7,NA,right,right,TRUE,1562,image199,image150
1,2,5,D,retrieval,NA,NA,NA,NA,NA,NA,image360,NA,image285,FALSE,5651,image360,image31
1,2,5,D,retrieval,NA,NA,NA,NA,NA,NA,image3,NA,image3,TRUE,3524,image3,image31
1,2,5,D,retrieval,NA,NA,NA,NA,NA,NA,image429,NA,image199,FALSE,2560,image429,image31
1,2,5,D,retrieval,NA,NA,NA,NA,NA,NA,image199,NA,NULL,FALSE,NA,image199,image31
1,2,6,D,memory-resp,#FFFFFF,#374bbe,image389,4.8,image204,67.4,NA,right,right,TRUE,1080,image204,image204
1,2,6,D,memory-resp,#FFFFFF,#abab17,image288,34,image233,6.2,NA,left,left,TRUE,2306,image233,image288
1,2,6,D,memory-resp,#c71a68,#FFFFFF,image17,7,image21,20,NA,right,right,TRUE,1580,image17,image21
1,2,6,D,memory-resp,#24844b,#FFFFFF,image381,12,image106,30,NA,right,right,TRUE,2742,image381,image106
1,2,6,D,retrieval,NA,NA,NA,NA,NA,NA,image17,NA,image17,TRUE,3043,image17,image204
1,2,6,D,retrieval,NA,NA,NA,NA,NA,NA,image204,NA,image204,TRUE,3350,image204,image204
1,2,6,D,retrieval,NA,NA,NA,NA,NA,NA,image233,NA,image288,FALSE,3010,image233,image204
1,2,6,D,retrieval,NA,NA,NA,NA,NA,NA,image381,NA,image381,TRUE,7743,image381,image204
1,2,7,D,memory-resp,#7c2386,#FFFFFF,image55,75,image38,6.5,NA,left,left,TRUE,1300,image55,image55
1,2,7,D,memory-resp,#FFFFFF,#ba5d2c,image351,450,image257,170,NA,left,right,FALSE,1278,image257,image351
1,2,7,D,memory-resp,#FFFFFF,#65ad43,image182,800,image240,19,NA,left,left,TRUE,1288,image240,image182
1,2,7,D,memory-resp,#2489ae,#FFFFFF,image358,16.2,image169,999,NA,right,right,TRUE,2518,image358,image169
1,2,7,D,retrieval,NA,NA,NA,NA,NA,NA,image358,NA,image358,TRUE,2323,image358,image55
1,2,7,D,retrieval,NA,NA,NA,NA,NA,NA,image55,NA,image55,TRUE,3565,image55,image55
1,2,7,D,retrieval,NA,NA,NA,NA,NA,NA,image240,NA,image240,TRUE,3107,image240,image55
1,2,7,D,retrieval,NA,NA,NA,NA,NA,NA,image257,NA,image257,TRUE,3018,image257,image55
1,2,8,D,memory-resp,#FFFFFF,#0ee16a,image133,300,image245,10.5,NA,left,left,TRUE,1575,image245,image133
1,2,8,D,memory-resp,#FFFFFF,#932588,image312,20.5,image22,9.1,NA,left,left,TRUE,905,image22,image312
1,2,8,D,memory-resp,#94731e,#FFFFFF,image172,8,image346,950,NA,right,right,TRUE,1184,image172,image346
1,2,8,D,memory-resp,#3663c4,#FFFFFF,image64,960,image290,8.5,NA,left,left,TRUE,879,image64,image64
1,2,8,D,retrieval,NA,NA,NA,NA,NA,NA,image245,NA,image245,TRUE,2923,image245,image133
1,2,8,D,retrieval,NA,NA,NA,NA,NA,NA,image22,NA,image133,FALSE,4667,image22,image133
1,2,8,D,retrieval,NA,NA,NA,NA,NA,NA,image64,NA,image64,TRUE,2713,image64,image133
1,2,8,D,retrieval,NA,NA,NA,NA,NA,NA,image172,NA,image172,TRUE,1923,image172,image133
1,2,9,D,memory-resp,#FFFFFF,#9d6e34,image293,60.2,image371,7.1,NA,left,left,TRUE,1285,image371,image293
1,2,9,D,memory-resp,#4489a7,#FFFFFF,image258,7,image286,270,NA,right,right,TRUE,843,image258,image286
1,2,9,D,memory-resp,#437138,#FFFFFF,image181,999,image191,35,NA,left,left,TRUE,1134,image181,image181
1,2,9,D,memory-resp,#9920c5,#FFFFFF,image152,180,image306,41.4,NA,left,left,TRUE,1083,image152,image152
1,2,9,D,retrieval,NA,NA,NA,NA,NA,NA,image371,NA,image371,TRUE,3612,image371,image293
1,2,9,D,retrieval,NA,NA,NA,NA,NA,NA,image152,NA,image152,TRUE,3505,image152,image293
1,2,9,D,retrieval,NA,NA,NA,NA,NA,NA,image181,NA,image181,TRUE,1891,image181,image293
1,2,9,D,retrieval,NA,NA,NA,NA,NA,NA,image258,NA,image258,TRUE,2048,image258,image293
1,2,10,D,memory-resp,#FFFFFF,#4b6ea0,image34,210,image351,450,NA,right,left,FALSE,1193,image351,image351
1,2,10,D,memory-resp,#FFFFFF,#4a8e48,image378,13,image420,150,NA,right,right,TRUE,1037,image420,image420
1,2,10,D,memory-resp,#ba6b26,#FFFFFF,image292,6.8,image120,450,NA,right,right,TRUE,916,image292,image120
1,2,10,D,memory-resp,#FFFFFF,#992990,image63,800,image91,230,NA,left,left,TRUE,1341,image91,image63
1,2,10,D,retrieval,NA,NA,NA,NA,NA,NA,image292,NA,image292,TRUE,3979,image292,image351
1,2,10,D,retrieval,NA,NA,NA,NA,NA,NA,image420,NA,image378,FALSE,2554,image420,image351
1,2,10,D,retrieval,NA,NA,NA,NA,NA,NA,image351,NA,image351,TRUE,3266,image351,image351
1,2,10,D,retrieval,NA,NA,NA,NA,NA,NA,image91,NA,image91,TRUE,5798,image91,image351
1,2,11,D,memory-resp,#FFFFFF,#30a923,image347,999,image200,0.5,NA,left,left,TRUE,900,image200,image347
1,2,11,D,memory-resp,#FFFFFF,#3a81bb,image420,150,image20,4.5,NA,left,left,TRUE,980,image20,image420
1,2,11,D,memory-resp,#FFFFFF,#8d4320,image128,7.7,image192,20,NA,right,right,TRUE,1990,image192,image192
1,2,11,D,memory-resp,#FFFFFF,#6f2796,image371,7.1,image273,999,NA,right,right,TRUE,1046,image273,image273
1,2,11,D,retrieval,NA,NA,NA,NA,NA,NA,image273,NA,image273,TRUE,2112,image273,image347
1,2,11,D,retrieval,NA,NA,NA,NA,NA,NA,image20,NA,image20,TRUE,2703,image20,image347
1,2,11,D,retrieval,NA,NA,NA,NA,NA,NA,image200,NA,image200,TRUE,1440,image200,image347
1,2,11,D,retrieval,NA,NA,NA,NA,NA,NA,image192,NA,image192,TRUE,3421,image192,image347
1,2,12,D,memory-resp,#205da2,#FFFFFF,image410,7,image293,60.2,NA,right,right,TRUE,963,image410,image293
1,2,12,D,memory-resp,#FFFFFF,#e7610d,image257,170,image94,3.4,NA,left,left,TRUE,1207,image94,image257
1,2,12,D,memory-resp,#FFFFFF,#853282,image18,18,image428,9,NA,left,right,FALSE,1442,image428,image18
1,2,12,D,memory-resp,#FFFFFF,#1a8930,image202,2.9,image24,80,NA,right,right,TRUE,1412,image24,image24
1,2,12,D,retrieval,NA,NA,NA,NA,NA,NA,image410,NA,image410,TRUE,3282,image410,image293
1,2,12,D,retrieval,NA,NA,NA,NA,NA,NA,image94,NA,image94,TRUE,1632,image94,image293
1,2,12,D,retrieval,NA,NA,NA,NA,NA,NA,image24,NA,image24,TRUE,2848,image24,image293
1,2,12,D,retrieval,NA,NA,NA,NA,NA,NA,image428,NA,image18,FALSE,3122,image428,image293
1,2,13,D,memory-resp,#924977,#FFFFFF,image16,999,image395,8.2,NA,left,left,TRUE,1207,image16,image16
1,2,13,D,memory-resp,#1129a2,#FFFFFF,image377,8.7,image382,23.2,NA,right,right,TRUE,1018,image377,image382
1,2,13,D,memory-resp,#8d6f3a,#FFFFFF,image209,5.5,image57,2.5,NA,left,left,TRUE,1298,image209,image209
1,2,13,D,memory-resp,#FFFFFF,#37ae53,image151,10,image303,20,NA,right,right,TRUE,1467,image303,image303
1,2,13,D,retrieval,NA,NA,NA,NA,NA,NA,image377,NA,image377,TRUE,3204,image377,image16
1,2,13,D,retrieval,NA,NA,NA,NA,NA,NA,image303,NA,image303,TRUE,3634,image303,image16
1,2,13,D,retrieval,NA,NA,NA,NA,NA,NA,image209,NA,image209,TRUE,1901,image209,image16
1,2,13,D,retrieval,NA,NA,NA,NA,NA,NA,image16,NA,image248,FALSE,3292,image16,image16
1,2,14,D,memory-resp,#44a75e,#FFFFFF,image266,1.5,image391,20,NA,right,right,TRUE,987,image266,image391
1,2,14,D,memory-resp,#FFFFFF,#74732a,image143,72,image313,10,NA,left,left,TRUE,1545,image313,image143
1,2,14,D,memory-resp,#FFFFFF,#ab217f,image155,14.5,image104,6,NA,left,right,FALSE,1375,image104,image155
1,2,14,D,memory-resp,#FFFFFF,#2e34ad,image57,2.5,image377,8.7,NA,right,right,TRUE,874,image377,image377
1,2,14,D,retrieval,NA,NA,NA,NA,NA,NA,image266,NA,image320,FALSE,7275,image266,image391
1,2,14,D,retrieval,NA,NA,NA,NA,NA,NA,image104,NA,image104,TRUE,2914,image104,image391
1,2,14,D,retrieval,NA,NA,NA,NA,NA,NA,image313,NA,image313,TRUE,2256,image313,image391
1,2,14,D,retrieval,NA,NA,NA,NA,NA,NA,image377,NA,image377,TRUE,3924,image377,image391
1,2,15,D,memory-resp,#9a235a,#FFFFFF,image206,14,image357,4.3,NA,left,left,TRUE,816,image206,image206
1,2,15,D,memory-resp,#cccc19,#FFFFFF,image326,1.9,image376,40,NA,right,right,TRUE,1116,image326,image376
1,2,15,D,memory-resp,#25b164,#FFFFFF,image63,800,image133,300,NA,left,left,TRUE,825,image63,image63
1,2,15,D,memory-resp,#0b159d,#FFFFFF,image13,15,image319,34,NA,right,right,TRUE,1315,image13,image319
1,2,15,D,retrieval,NA,NA,NA,NA,NA,NA,image13,NA,image13,TRUE,2860,image13,image206
1,2,15,D,retrieval,NA,NA,NA,NA,NA,NA,image206,NA,image206,TRUE,2659,image206,image206
1,2,15,D,retrieval,NA,NA,NA,NA,NA,NA,image326,NA,image326,TRUE,2136,image326,image206
1,2,15,D,retrieval,NA,NA,NA,NA,NA,NA,image63,NA,image63,TRUE,1376,image63,image206
1,3,P1,C,processing,#FFFFFF,#5f2574,image405,10,image250,34,NA,right,right,TRUE,1088,NA,NA
1,3,P1,C,processing,#205b7e,#FFFFFF,image371,7.1,image405,10,NA,right,left,FALSE,1263,NA,NA
1,3,P1,C,processing,#8e6043,#FFFFFF,image427,40,image405,10,NA,left,left,TRUE,1261,NA,NA
1,3,P1,C,processing,#FFFFFF,#449424,image405,10,image167,17.4,NA,right,right,TRUE,891,NA,NA
1,3,P2,C,processing,#50609b,#FFFFFF,image15,12,image405,10,NA,left,left,TRUE,1180,NA,NA
1,3,P2,C,processing,#3db850,#FFFFFF,image265,9.6,image405,10,NA,right,left,FALSE,1083,NA,NA
1,3,P2,C,processing,#ac2a87,#FFFFFF,image27,6,image405,10,NA,right,right,TRUE,1174,NA,NA
1,3,P2,C,processing,#bba525,#FFFFFF,image59,0.8,image405,10,NA,right,right,TRUE,990,NA,NA
1,3,P3,C,processing,#FFFFFF,#8d7d35,image405,10,image245,10.5,NA,right,right,TRUE,830,NA,NA
1,3,P3,C,processing,#FFFFFF,#812867,image405,10,image274,3.9,NA,left,right,FALSE,1700,NA,NA
1,3,P3,C,processing,#FFFFFF,#3e984a,image405,10,image139,9.6,NA,left,right,FALSE,863,NA,NA
1,3,P3,C,processing,#FFFFFF,#103cea,image405,10,image5,27.1,NA,right,right,TRUE,1002,NA,NA
1,3,P4,C,processing,#FFFFFF,#376c39,image405,10,image408,7,NA,left,right,FALSE,1175,NA,NA
1,3,P4,C,processing,#FFFFFF,#6c118d,image405,10,image133,300,NA,right,right,TRUE,837,NA,NA
1,3,P4,C,processing,#FFFFFF,#125d97,image405,10,image50,8,NA,left,left,TRUE,1851,NA,NA
1,3,P4,C,processing,#935943,#FFFFFF,image22,9.1,image405,10,NA,right,left,FALSE,873,NA,NA
1,3,P5,C,processing,#709e15,#FFFFFF,image197,999,image405,10,NA,left,left,TRUE,848,NA,NA
1,3,P5,C,processing,#4d34bc,#FFFFFF,image248,300,image405,10,NA,left,left,TRUE,937,NA,NA
1,3,P5,C,processing,#FFFFFF,#b03032,image405,10,image43,18,NA,right,right,TRUE,958,NA,NA
1,3,P5,C,processing,#FFFFFF,#1fc7be,image405,10,image128,7.7,NA,left,right,FALSE,837,NA,NA
1,3,P6,C,processing,#703e7a,#FFFFFF,image220,0.5,image405,10,NA,right,right,TRUE,1393,NA,NA
1,3,P6,C,processing,#8e442f,#FFFFFF,image116,14.5,image405,10,NA,left,left,TRUE,1532,NA,NA
1,3,P6,C,processing,#1387b9,#FFFFFF,image109,8,image405,10,NA,right,right,TRUE,1255,NA,NA
1,3,P6,C,processing,#FFFFFF,#1dbc15,image405,10,image19,8,NA,left,right,FALSE,1572,NA,NA
1,3,P7,C,processing,#FFFFFF,#868d1b,image405,10,image403,12,NA,right,right,TRUE,786,NA,NA
1,3,P7,C,processing,#53a28d,#FFFFFF,image78,999,image405,10,NA,left,left,TRUE,784,NA,NA
1,3,P7,C,processing,#FFFFFF,#3b358d,image405,10,image414,55,NA,right,right,TRUE,805,NA,NA
1,3,P7,C,processing,#ad384c,#FFFFFF,image241,90,image405,10,NA,left,left,TRUE,852,NA,NA
1,3,P8,C,processing,#FFFFFF,#38728f,image405,10,image216,500,NA,right,right,TRUE,857,NA,NA
1,3,P8,C,processing,#FFFFFF,#955850,image405,10,image165,6.6,NA,left,right,FALSE,1221,NA,NA
1,3,P8,C,processing,#FFFFFF,#6b178c,image405,10,image47,12,NA,right,right,TRUE,828,NA,NA
1,3,P8,C,processing,#466d3b,#FFFFFF,image309,13.6,image405,10,NA,left,left,TRUE,1210,NA,NA
1,3,P9,C,processing,#7f3088,#FFFFFF,image1,7,image405,10,NA,right,left,FALSE,1728,NA,NA
1,3,P9,C,processing,#FFFFFF,#804a2d,image405,10,image408,7,NA,left,right,FALSE,1039,NA,NA
1,3,P9,C,processing,#FFFFFF,#3d792f,image405,10,image209,5.5,NA,left,right,FALSE,1069,NA,NA
1,3,P9,C,processing,#FFFFFF,#4b7b91,image405,10,image130,250,NA,right,right,TRUE,774,NA,NA
1,3,P10,C,processing,#FFFFFF,#922f75,image405,10,image13,15,NA,right,right,TRUE,716,NA,NA
1,3,P10,C,processing,#45b06e,#FFFFFF,image27,6,image405,10,NA,right,right,TRUE,980,NA,NA
1,3,P10,C,processing,#FFFFFF,#25328d,image405,10,image290,8.5,NA,left,right,FALSE,934,NA,NA
1,3,P10,C,processing,#FFFFFF,#e1b619,image405,10,image177,15,NA,right,right,TRUE,1226,NA,NA
1,3,P11,C,processing,#FFFFFF,#2d6e9f,image405,10,image398,150,NA,right,right,TRUE,733,NA,NA
1,3,P11,C,processing,#48b42d,#FFFFFF,image338,12,image405,10,NA,left,left,TRUE,1101,NA,NA
1,3,P11,C,processing,#9c5316,#FFFFFF,image214,80,image405,10,NA,left,left,TRUE,796,NA,NA
1,3,P11,C,processing,#6b2f6f,#FFFFFF,image250,34,image405,10,NA,left,left,TRUE,748,NA,NA
1,3,P12,C,processing,#FFFFFF,#579c3a,image405,10,image156,6.5,NA,left,right,FALSE,1115,NA,NA
1,3,P12,C,processing,#a14717,#FFFFFF,image212,8,image405,10,NA,right,left,FALSE,871,NA,NA
1,3,P12,C,processing,#FFFFFF,#3c989f,image405,10,image263,5.4,NA,left,left,TRUE,2163,NA,NA
1,3,P12,C,processing,#FFFFFF,#804a8c,image405,10,image417,9,NA,left,right,FALSE,925,NA,NA
1,3,P13,C,processing,#FFFFFF,#2ab28d,image405,10,image38,6.5,NA,left,right,FALSE,1787,NA,NA
1,3,P13,C,processing,#6c3cbe,#FFFFFF,image156,6.5,image405,10,NA,right,left,FALSE,865,NA,NA
1,3,P13,C,processing,#FFFFFF,#a3e015,image405,10,image364,4.2,NA,left,right,FALSE,1301,NA,NA
1,3,P13,C,processing,#c32842,#FFFFFF,image109,8,image405,10,NA,right,right,TRUE,930,NA,NA
1,3,P14,C,processing,#FFFFFF,#1a6484,image405,10,image358,16.2,NA,right,right,TRUE,854,NA,NA
1,3,P14,C,processing,#2e9a19,#FFFFFF,image47,12,image405,10,NA,left,left,TRUE,1032,NA,NA
1,3,P14,C,processing,#FFFFFF,#9e31aa,image405,10,image38,6.5,NA,left,right,FALSE,2416,NA,NA
1,3,P14,C,processing,#FFFFFF,#ad261a,image405,10,image138,2,NA,left,left,TRUE,1359,NA,NA
1,3,P15,C,processing,#FFFFFF,#8a2a14,image405,10,image349,5.8,NA,left,right,FALSE,799,NA,NA
1,3,P15,C,processing,#FFFFFF,#82118d,image405,10,image167,17.4,NA,right,right,TRUE,698,NA,NA
1,3,P15,C,processing,#FFFFFF,#0a7a99,image405,10,image409,28,NA,right,right,TRUE,1180,NA,NA
1,3,P15,C,processing,#436534,#FFFFFF,image207,24,image405,10,NA,left,left,TRUE,1349,NA,NA
1,3,P16,C,processing,#a46732,#FFFFFF,image216,500,image405,10,NA,left,left,TRUE,793,NA,NA
1,3,P16,C,processing,#FFFFFF,#a742a9,image405,10,image167,17.4,NA,right,right,TRUE,894,NA,NA
1,3,P16,C,processing,#FFFFFF,#4da432,image405,10,image302,11,NA,right,right,TRUE,1590,NA,NA
1,3,P16,C,processing,#FFFFFF,#176396,image405,10,image181,999,NA,right,right,TRUE,996,NA,NA
1,3,P17,C,processing,#2a985a,#FFFFFF,image256,10.2,image405,10,NA,left,left,TRUE,1086,NA,NA
1,3,P17,C,processing,#FFFFFF,#635298,image405,10,image222,200,NA,right,right,TRUE,779,NA,NA
1,3,P17,C,processing,#FFFFFF,#673242,image405,10,image182,800,NA,right,right,TRUE,740,NA,NA
1,3,P17,C,processing,#b6b60c,#FFFFFF,image345,60,image405,10,NA,left,left,TRUE,754,NA,NA
1,3,P18,C,processing,#FFFFFF,#ce1c31,image405,10,image212,8,NA,left,right,FALSE,887,NA,NA
1,3,P18,C,processing,#5518bf,#FFFFFF,image408,7,image405,10,NA,right,left,FALSE,1633,NA,NA
1,3,P18,C,processing,#6fa71b,#FFFFFF,image27,6,image405,10,NA,right,right,TRUE,1240,NA,NA
1,3,P18,C,processing,#FFFFFF,#1dc3aa,image405,10,image297,7.9,NA,left,right,FALSE,806,NA,NA
1,3,P19,C,processing,#FFFFFF,#129756,image405,10,image171,9.6,NA,left,right,FALSE,1443,NA,NA
1,3,P19,C,processing,#332b88,#FFFFFF,image261,9.5,image405,10,NA,right,left,FALSE,866,NA,NA
1,3,P19,C,processing,#72703b,#FFFFFF,image396,34,image405,10,NA,left,left,TRUE,882,NA,NA
1,3,P19,C,processing,#a43d72,#FFFFFF,image61,6,image405,10,NA,right,right,TRUE,1472,NA,NA
1,3,P20,C,processing,#FFFFFF,#269782,image405,10,image79,170,NA,right,right,TRUE,770,NA,NA
1,3,P20,C,processing,#FFFFFF,#70b526,image405,10,image328,40,NA,right,right,TRUE,1968,NA,NA
1,3,P20,C,processing,#FFFFFF,#921122,image405,10,image158,150,NA,right,right,TRUE,862,NA,NA
1,3,P20,C,processing,#4c2cce,#FFFFFF,image378,13,image405,10,NA,left,left,TRUE,1662,NA,NA
1,3,P21,C,processing,#FFFFFF,#406e3a,image405,10,image176,170,NA,right,right,TRUE,747,NA,NA
1,3,P21,C,processing,#be6613,#FFFFFF,image37,4.2,image405,10,NA,right,right,TRUE,1245,NA,NA
1,3,P21,C,processing,#FFFFFF,#245f8a,image405,10,image218,13.5,NA,right,right,TRUE,866,NA,NA
1,3,P21,C,processing,#743d8a,#FFFFFF,image302,11,image405,10,NA,left,left,TRUE,1011,NA,NA
1,3,P22,C,processing,#8d0fb3,#FFFFFF,image426,48,image405,10,NA,left,left,TRUE,838,NA,NA
1,3,P22,C,processing,#32afb8,#FFFFFF,image135,8.4,image405,10,NA,right,left,FALSE,1085,NA,NA
1,3,P22,C,processing,#5b973b,#FFFFFF,image148,30,image405,10,NA,left,left,TRUE,779,NA,NA
1,3,P22,C,processing,#b95741,#FFFFFF,image167,17.4,image405,10,NA,left,left,TRUE,741,NA,NA
1,3,P23,C,processing,#FFFFFF,#d92093,image405,10,image166,30,NA,right,right,TRUE,961,NA,NA
1,3,P23,C,processing,#1c1287,#FFFFFF,image105,7.1,image405,10,NA,right,left,FALSE,974,NA,NA
1,3,P23,C,processing,#2f9273,#FFFFFF,image171,9.6,image405,10,NA,right,left,FALSE,1257,NA,NA
1,3,P23,C,processing,#FFFFFF,#9c8f3a,image405,10,image76,5.5,NA,left,left,TRUE,1972,NA,NA
1,3,P24,C,processing,#FFFFFF,#bc4110,image405,10,image252,12,NA,right,right,TRUE,963,NA,NA
1,3,P24,C,processing,#FFFFFF,#c70cca,image405,10,image336,7,NA,left,right,FALSE,1856,NA,NA
1,3,P24,C,processing,#FFFFFF,#30af2c,image405,10,image315,1.5,NA,left,left,TRUE,1252,NA,NA
1,3,P24,C,processing,#4d7499,#FFFFFF,image408,7,image405,10,NA,right,left,FALSE,1133,NA,NA
1,3,P25,C,processing,#23d7a1,#FFFFFF,image431,14.8,image405,10,NA,left,left,TRUE,817,NA,NA
1,3,P25,C,processing,#FFFFFF,#71dd13,image405,10,image314,6.5,NA,left,left,TRUE,1590,NA,NA
1,3,P25,C,processing,#592ea3,#FFFFFF,image116,14.5,image405,10,NA,left,left,TRUE,811,NA,NA
1,3,P25,C,processing,#a21311,#FFFFFF,image417,9,image405,10,NA,right,left,FALSE,748,NA,NA
1,3,1,C,memory-resp,#FFFFFF,#639a3c,image405,10,image161,8.7,NA,left,left,TRUE,1527,image161,image405
1,3,1,C,memory-resp,#FFFFFF,#2b7d6c,image405,10,image9,36,NA,right,right,TRUE,1196,image9,image9
1,3,1,C,memory-resp,#FFFFFF,#6f33c1,image405,10,image240,19,NA,right,right,TRUE,918,image240,image240
1,3,1,C,memory-resp,#FFFFFF,#ad485c,image405,10,image427,40,NA,right,right,TRUE,1227,image427,image427
1,3,1,C,retrieval,NA,NA,NA,NA,NA,NA,image9,NA,image9,TRUE,2748,image9,image405
1,3,1,C,retrieval,NA,NA,NA,NA,NA,NA,image240,NA,image240,TRUE,2752,image240,image405
1,3,1,C,retrieval,NA,NA,NA,NA,NA,NA,image161,NA,image9,FALSE,1425,image161,image405
1,3,1,C,retrieval,NA,NA,NA,NA,NA,NA,image427,NA,image72,FALSE,5438,image427,image405
1,3,2,C,memory-resp,#2e7040,#FFFFFF,image61,6,image405,10,NA,right,right,TRUE,2314,image61,image405
1,3,2,C,memory-resp,#3b3dba,#FFFFFF,image95,1,image405,10,NA,right,right,TRUE,1070,image95,image405
1,3,2,C,memory-resp,#FFFFFF,#9c8340,image405,10,image373,17.5,NA,right,right,TRUE,1427,image373,image373
1,3,2,C,memory-resp,#FFFFFF,#b81e94,image405,10,image261,9.5,NA,left,right,FALSE,825,image261,image405
1,3,2,C,retrieval,NA,NA,NA,NA,NA,NA,image61,NA,image61,TRUE,3038,image61,image405
1,3,2,C,retrieval,NA,NA,NA,NA,NA,NA,image373,NA,image373,TRUE,1968,image373,image405
1,3,2,C,retrieval,NA,NA,NA,NA,NA,NA,image95,NA,image95,TRUE,992,image95,image405
1,3,2,C,retrieval,NA,NA,NA,NA,NA,NA,image261,NA,image261,TRUE,1889,image261,image405
1,3,3,C,memory-resp,#cb108a,#FFFFFF,image375,8,image405,10,NA,right,left,FALSE,842,image375,image405
1,3,3,C,memory-resp,#FFFFFF,#ae8c29,image405,10,image154,16.2,NA,right,right,TRUE,1095,image154,image154
1,3,3,C,memory-resp,#209d48,#FFFFFF,image398,150,image405,10,NA,left,left,TRUE,752,image398,image398
1,3,3,C,memory-resp,#50669b,#FFFFFF,image206,14,image405,10,NA,left,left,TRUE,1115,image206,image206
1,3,3,C,retrieval,NA,NA,NA,NA,NA,NA,image154,NA,image154,TRUE,4239,image154,image405
1,3,3,C,retrieval,NA,NA,NA,NA,NA,NA,image375,NA,image375,TRUE,2633,image375,image405
1,3,3,C,retrieval,NA,NA,NA,NA,NA,NA,image206,NA,image398,FALSE,2129,image206,image405
1,3,3,C,retrieval,NA,NA,NA,NA,NA,NA,image398,NA,image398,TRUE,3138,image398,image405
1,3,4,C,memory-resp,#FFFFFF,#32c3b2,image405,10,image265,9.6,NA,left,right,FALSE,829,image265,image405
1,3,4,C,memory-resp,#7541b4,#FFFFFF,image54,7,image405,10,NA,right,right,TRUE,1282,image54,image405
1,3,4,C,memory-resp,#55e010,#FFFFFF,image52,800,image405,10,NA,left,left,TRUE,861,image52,image52
1,3,4,C,memory-resp,#961319,#FFFFFF,image133,300,image405,10,NA,left,left,TRUE,761,image133,image133
1,3,4,C,retrieval,NA,NA,NA,NA,NA,NA,image133,NA,image133,TRUE,1674,image133,image405
1,3,4,C,retrieval,NA,NA,NA,NA,NA,NA,image52,NA,image52,TRUE,1424,image52,image405
1,3,4,C,retrieval,NA,NA,NA,NA,NA,NA,image54,NA,image54,TRUE,3411,image54,image405
1,3,4,C,retrieval,NA,NA,NA,NA,NA,NA,image265,NA,image265,TRUE,1296,image265,image405
1,3,5,C,memory-resp,#408242,#FFFFFF,image350,3,image405,10,NA,right,right,TRUE,1261,image350,image405
1,3,5,C,memory-resp,#8b553c,#FFFFFF,image324,1.4,image405,10,NA,right,right,TRUE,1398,image324,image405
1,3,5,C,memory-resp,#FFFFFF,#881c92,image405,10,image205,999,NA,right,right,TRUE,1523,image205,image205
1,3,5,C,memory-resp,#FFFFFF,#486ba3,image405,10,image319,34,NA,right,right,TRUE,764,image319,image319
1,3,5,C,retrieval,NA,NA,NA,NA,NA,NA,image350,NA,image350,TRUE,3280,image350,image405
1,3,5,C,retrieval,NA,NA,NA,NA,NA,NA,image324,NA,image324,TRUE,1328,image324,image405
1,3,5,C,retrieval,NA,NA,NA,NA,NA,NA,image319,NA,image205,FALSE,3123,image319,image405
1,3,5,C,retrieval,NA,NA,NA,NA,NA,NA,image205,NA,image319,FALSE,847,image205,image405
1,3,6,C,memory-resp,#38258d,#FFFFFF,image431,14.8,image405,10,NA,left,left,TRUE,910,image431,image431
1,3,6,C,memory-resp,#FFFFFF,#d21436,image405,10,image55,75,NA,right,right,TRUE,761,image55,image55
1,3,6,C,memory-resp,#12a17f,#FFFFFF,image201,20,image405,10,NA,left,left,TRUE,862,image201,image201
1,3,6,C,memory-resp,#FFFFFF,#858a33,image405,10,image135,8.4,NA,left,right,FALSE,1558,image135,image405
1,3,6,C,retrieval,NA,NA,NA,NA,NA,NA,image201,NA,image201,TRUE,1661,image201,image431
1,3,6,C,retrieval,NA,NA,NA,NA,NA,NA,image55,NA,image55,TRUE,2385,image55,image431
1,3,6,C,retrieval,NA,NA,NA,NA,NA,NA,image431,NA,image431,TRUE,2464,image431,image431
1,3,6,C,retrieval,NA,NA,NA,NA,NA,NA,image135,NA,image135,TRUE,2898,image135,image431
1,3,7,C,memory-resp,#FFFFFF,#2a6074,image405,10,image425,700,NA,right,right,TRUE,805,image425,image425
1,3,7,C,memory-resp,#cc1f19,#FFFFFF,image39,16,image405,10,NA,left,left,TRUE,935,image39,image39
1,3,7,C,memory-resp,#FFFFFF,#50c918,image405,10,image359,11,NA,right,right,TRUE,681,image359,image359
1,3,7,C,memory-resp,#7c309c,#FFFFFF,image212,8,image405,10,NA,right,left,FALSE,1138,image212,image405
1,3,7,C,retrieval,NA,NA,NA,NA,NA,NA,image359,NA,image359,TRUE,1947,image359,image425
1,3,7,C,retrieval,NA,NA,NA,NA,NA,NA,image39,NA,image39,TRUE,2339,image39,image425
1,3,7,C,retrieval,NA,NA,NA,NA,NA,NA,image425,NA,image425,TRUE,1537,image425,image425
1,3,7,C,retrieval,NA,NA,NA,NA,NA,NA,image212,NA,image359,FALSE,1265,image212,image425
1,3,8,C,memory-resp,#bf2256,#FFFFFF,image287,7,image405,10,NA,right,left,FALSE,1528,image287,image405
1,3,8,C,memory-resp,#FFFFFF,#95a53b,image405,10,image107,200,NA,right,right,TRUE,719,image107,image107
1,3,8,C,memory-resp,#2c1fb7,#FFFFFF,image264,18.6,image405,10,NA,left,left,TRUE,1472,image264,image264
1,3,8,C,memory-resp,#FFFFFF,#378661,image405,10,image334,25,NA,right,right,TRUE,1389,image334,image334
1,3,8,C,retrieval,NA,NA,NA,NA,NA,NA,image264,NA,image264,TRUE,2305,image264,image405
1,3,8,C,retrieval,NA,NA,NA,NA,NA,NA,image107,NA,image107,TRUE,2481,image107,image405
1,3,8,C,retrieval,NA,NA,NA,NA,NA,NA,image287,NA,image287,TRUE,1682,image287,image405
1,3,8,C,retrieval,NA,NA,NA,NA,NA,NA,image334,NA,image334,TRUE,6831,image334,image405
1,3,9,C,memory-resp,#FFFFFF,#27b9d3,image405,10,image76,5.5,NA,left,left,TRUE,1522,image76,image405
1,3,9,C,memory-resp,#FFFFFF,#6122a5,image405,10,image22,9.1,NA,left,right,FALSE,720,image22,image405
1,3,9,C,memory-resp,#FFFFFF,#72c926,image405,10,image70,7,NA,left,right,FALSE,1515,image70,image405
1,3,9,C,memory-resp,#845343,#FFFFFF,image62,7.5,image405,10,NA,right,right,TRUE,1501,image62,image405
1,3,9,C,retrieval,NA,NA,NA,NA,NA,NA,image70,NA,image70,TRUE,6444,image70,image405
1,3,9,C,retrieval,NA,NA,NA,NA,NA,NA,image22,NA,image22,TRUE,1073,image22,image405
1,3,9,C,retrieval,NA,NA,NA,NA,NA,NA,image76,NA,image88,FALSE,5713,image76,image405
1,3,9,C,retrieval,NA,NA,NA,NA,NA,NA,image62,NA,image76,FALSE,5117,image62,image405
1,3,10,C,memory-resp,#961b13,#FFFFFF,image391,20,image405,10,NA,left,left,TRUE,842,image391,image391
1,3,10,C,memory-resp,#FFFFFF,#34871d,image405,10,image135,8.4,NA,left,right,FALSE,818,image135,image405
1,3,10,C,memory-resp,#1b9ba1,#FFFFFF,image264,18.6,image405,10,NA,left,left,TRUE,1119,image264,image264
1,3,10,C,memory-resp,#5d346f,#FFFFFF,image308,0.8,image405,10,NA,right,right,TRUE,1478,image308,image405
1,3,10,C,retrieval,NA,NA,NA,NA,NA,NA,image135,NA,image264,FALSE,3237,image135,image391
1,3,10,C,retrieval,NA,NA,NA,NA,NA,NA,image391,NA,image391,TRUE,2240,image391,image391
1,3,10,C,retrieval,NA,NA,NA,NA,NA,NA,image308,NA,image308,TRUE,2972,image308,image391
1,3,10,C,retrieval,NA,NA,NA,NA,NA,NA,image264,NA,image264,TRUE,4369,image264,image391
1,3,11,C,memory-resp,#FFFFFF,#95136a,image405,10,image72,3,NA,left,left,TRUE,1449,image72,image405
1,3,11,C,memory-resp,#344493,#FFFFFF,image261,9.5,image405,10,NA,right,left,FALSE,824,image261,image405
1,3,11,C,memory-resp,#8e7d2e,#FFFFFF,image408,7,image405,10,NA,right,left,FALSE,1088,image408,image405
1,3,11,C,memory-resp,#FFFFFF,#318c5d,image405,10,image152,180,NA,right,right,TRUE,757,image152,image152
1,3,11,C,retrieval,NA,NA,NA,NA,NA,NA,image72,NA,image72,TRUE,5175,image72,image405
1,3,11,C,retrieval,NA,NA,NA,NA,NA,NA,image408,NA,image408,TRUE,2802,image408,image405
1,3,11,C,retrieval,NA,NA,NA,NA,NA,NA,image261,NA,image261,TRUE,3765,image261,image405
1,3,11,C,retrieval,NA,NA,NA,NA,NA,NA,image152,NA,image105,FALSE,382,image152,image405
1,3,12,C,memory-resp,#FFFFFF,#3e3e7a,image405,10,image105,7.1,NA,left,right,FALSE,1128,image105,image405
1,3,12,C,memory-resp,#FFFFFF,#aca216,image405,10,image13,15,NA,right,right,TRUE,827,image13,image13
1,3,12,C,memory-resp,#FFFFFF,#7e2052,image405,10,image135,8.4,NA,left,right,FALSE,839,image135,image405
1,3,12,C,memory-resp,#38bc81,#FFFFFF,image398,150,image405,10,NA,left,left,TRUE,775,image398,image398
1,3,12,C,retrieval,NA,NA,NA,NA,NA,NA,image135,NA,image135,TRUE,2153,image135,image405
1,3,12,C,retrieval,NA,NA,NA,NA,NA,NA,image105,NA,image105,TRUE,2336,image105,image405
1,3,12,C,retrieval,NA,NA,NA,NA,NA,NA,image398,NA,image398,TRUE,1854,image398,image405
1,3,12,C,retrieval,NA,NA,NA,NA,NA,NA,image13,NA,image13,TRUE,1923,image13,image405
1,3,13,C,memory-resp,#24a50d,#FFFFFF,image252,12,image405,10,NA,left,left,TRUE,827,image252,image252
1,3,13,C,memory-resp,#ac2b11,#FFFFFF,image295,7.1,image405,10,NA,right,left,FALSE,1032,image295,image405
1,3,13,C,memory-resp,#3291c8,#FFFFFF,image349,5.8,image405,10,NA,right,left,FALSE,1002,image349,image405
1,3,13,C,memory-resp,#FFFFFF,#7f3f9d,image405,10,image240,19,NA,right,right,TRUE,870,image240,image240
1,3,13,C,retrieval,NA,NA,NA,NA,NA,NA,image295,NA,image295,TRUE,3302,image295,image252
1,3,13,C,retrieval,NA,NA,NA,NA,NA,NA,image349,NA,image349,TRUE,3107,image349,image252
1,3,13,C,retrieval,NA,NA,NA,NA,NA,NA,image252,NA,image252,TRUE,4092,image252,image252
1,3,13,C,retrieval,NA,NA,NA,NA,NA,NA,image240,NA,image240,TRUE,3058,image240,image252
1,3,14,C,memory-resp,#FFFFFF,#37e119,image405,10,image130,250,NA,right,right,TRUE,1012,image130,image130
1,3,14,C,memory-resp,#FFFFFF,#9313aa,image405,10,image286,270,NA,right,right,TRUE,756,image286,image286
1,3,14,C,memory-resp,#975c44,#FFFFFF,image76,5.5,image405,10,NA,right,right,TRUE,1907,image76,image405
1,3,14,C,memory-resp,#1d8e9a,#FFFFFF,image247,999,image405,10,NA,left,left,TRUE,839,image247,image247
1,3,14,C,retrieval,NA,NA,NA,NA,NA,NA,image286,NA,image286,TRUE,1859,image286,image130
1,3,14,C,retrieval,NA,NA,NA,NA,NA,NA,image130,NA,image130,TRUE,4460,image130,image130
1,3,14,C,retrieval,NA,NA,NA,NA,NA,NA,image76,NA,image76,TRUE,4078,image76,image130
1,3,14,C,retrieval,NA,NA,NA,NA,NA,NA,image247,NA,image247,TRUE,936,image247,image130
1,3,15,C,memory-resp,#FFFFFF,#c98d2c,image405,10,image66,999,NA,right,right,TRUE,890,image66,image66
1,3,15,C,memory-resp,#2e7cad,#FFFFFF,image154,16.2,image405,10,NA,left,left,TRUE,843,image154,image154
1,3,15,C,memory-resp,#FFFFFF,#9d2fa7,image405,10,image359,11,NA,right,right,TRUE,1751,image359,image359
1,3,15,C,memory-resp,#FFFFFF,#2ceb0f,image405,10,image261,9.5,NA,left,right,FALSE,911,image261,image405
1,3,15,C,retrieval,NA,NA,NA,NA,NA,NA,image66,NA,image66,TRUE,3205,image66,image66
1,3,15,C,retrieval,NA,NA,NA,NA,NA,NA,image261,NA,image261,TRUE,2786,image261,image66
1,3,15,C,retrieval,NA,NA,NA,NA,NA,NA,image154,NA,image154,TRUE,4726,image154,image66
1,3,15,C,retrieval,NA,NA,NA,NA,NA,NA,image359,NA,image359,TRUE,2787,image359,image66
2,1,P1,C,processing,#388f6c,#FFFFFF,image156,6.5,image405,10,NA,right,left,FALSE,2173.2999999970198,NA,NA
2,1,P1,C,processing,#838c17,#FFFFFF,image180,14,image405,10,NA,left,left,TRUE,1621.5999999940395,NA,NA
2,1,P1,C,processing,#a10c2a,#FFFFFF,image188,5,image405,10,NA,right,right,TRUE,1433.0999999940395,NA,NA
2,1,P1,C,processing,#FFFFFF,#582a98,image405,10,image147,3,NA,left,left,TRUE,2276.6000000089407,NA,NA
2,1,P2,C,processing,#6b3597,#FFFFFF,image38,6.5,image405,10,NA,right,left,FALSE,1203.2999999970198,NA,NA
2,1,P2,C,processing,#FFFFFF,#4f723c,image405,10,image76,5.5,NA,left,left,TRUE,1869.0999999940395,NA,NA
2,1,P2,C,processing,#1994a4,#FFFFFF,image165,6.6,image405,10,NA,right,left,FALSE,1923.9000000059605,NA,NA
2,1,P2,C,processing,#FFFFFF,#8f443d,image405,10,image229,25,NA,right,right,TRUE,1101.5,NA,NA
2,1,P3,C,processing,#4fa190,#FFFFFF,image335,6.3,image405,10,NA,right,left,FALSE,1081.5,NA,NA
2,1,P3,C,processing,#FFFFFF,#553384,image405,10,image17,7,NA,left,right,FALSE,1468.2999999970198,NA,NA
2,1,P3,C,processing,#a60c33,#FFFFFF,image112,13,image405,10,NA,left,left,TRUE,1078.4000000059605,NA,NA
2,1,P3,C,processing,#FFFFFF,#7a8d2a,image405,10,image408,7,NA,left,right,FALSE,1378.5,NA,NA
2,1,P4,C,processing,#FFFFFF,#42328b,image405,10,image217,8.5,NA,left,right,FALSE,1065.2999999970198,NA,NA
2,1,P4,C,processing,#FFFFFF,#1b984b,image405,10,image431,14.8,NA,right,right,TRUE,1042.2000000029802,NA,NA
2,1,P4,C,processing,#FFFFFF,#cb105e,image405,10,image100,9,NA,left,left,TRUE,1512.4000000059605,NA,NA
2,1,P4,C,processing,#FFFFFF,#9fa10c,image405,10,image129,17,NA,right,right,TRUE,1233.0999999940395,NA,NA
2,1,P5,C,processing,#321c8d,#FFFFFF,image118,13.6,image405,10,NA,left,left,TRUE,871.8000000119209,NA,NA
2,1,P5,C,processing,#87a834,#FFFFFF,image412,10.5,image405,10,NA,left,left,TRUE,933.7999999970198,NA,NA
2,1,P5,C,processing,#54a07f,#FFFFFF,image98,15,image405,10,NA,left,left,TRUE,1207.8999999910593,NA,NA
2,1,P5,C,processing,#c5163c,#FFFFFF,image384,100,image405,10,NA,left,left,TRUE,1022.5,NA,NA
2,1,P6,C,processing,#FFFFFF,#248f52,image405,10,image429,40,NA,right,right,TRUE,991.0999999940395,NA,NA
2,1,P6,C,processing,#FFFFFF,#383271,image405,10,image325,12.6,NA,right,right,TRUE,1188,NA,NA
2,1,P6,C,processing,#b1164f,#FFFFFF,image309,13.6,image405,10,NA,left,left,TRUE,957.5,NA,NA
2,1,P6,C,processing,#a9a723,#FFFFFF,image403,12,image405,10,NA,left,left,TRUE,749.0999999940395,NA,NA
2,1,P7,C,processing,#a5a018,#FFFFFF,image286,270,image405,10,NA,left,left,TRUE,931.3999999910593,NA,NA
2,1,P7,C,processing,#aa135c,#FFFFFF,image391,20,image405,10,NA,left,left,TRUE,836.2000000029802,NA,NA
2,1,P7,C,processing,#138b5b,#FFFFFF,image240,19,image405,10,NA,left,left,TRUE,941,NA,NA
2,1,P7,C,processing,#3b11e4,#FFFFFF,image419,150,image405,10,NA,left,left,TRUE,756.9000000059605,NA,NA
2,1,P8,C,processing,#FFFFFF,#932f46,image405,10,image126,11,NA,right,right,TRUE,908.2999999970198,NA,NA
2,1,P8,C,processing,#FFFFFF,#3d17ba,image405,10,image315,1.5,NA,left,right,FALSE,764.1000000089407,NA,NA
2,1,P8,C,processing,#718717,#FFFFFF,image71,8,image405,10,NA,right,right,TRUE,1568.2000000029802,NA,NA
2,1,P8,C,processing,#FFFFFF,#238679,image405,10,image68,120,NA,right,right,TRUE,972.8999999910593,NA,NA
2,1,P9,C,processing,#19be29,#FFFFFF,image401,12,image405,10,NA,left,left,TRUE,819.2999999970198,NA,NA
2,1,P9,C,processing,#FFFFFF,#8f703d,image405,10,image39,16,NA,right,right,TRUE,1688.5999999940395,NA,NA
2,1,P9,C,processing,#1d4d96,#FFFFFF,image378,13,image405,10,NA,left,left,TRUE,905.0999999940395,NA,NA
2,1,P9,C,processing,#8e1499,#FFFFFF,image389,4.8,image405,10,NA,right,right,TRUE,1665.9000000059605,NA,NA
2,1,P10,C,processing,#398ca7,#FFFFFF,image163,8,image405,10,NA,right,left,FALSE,1327.2999999970198,NA,NA
2,1,P10,C,processing,#56c615,#FFFFFF,image360,19,image405,10,NA,left,left,TRUE,1175.7000000029802,NA,NA
2,1,P10,C,processing,#8c421d,#FFFFFF,image370,58.5,image405,10,NA,left,left,TRUE,860.1000000089407,NA,NA
2,1,P10,C,processing,#62396a,#FFFFFF,image116,14.5,image405,10,NA,left,left,TRUE,1098.4000000059605,NA,NA
2,1,P11,C,processing,#FFFFFF,#84a11b,image405,10,image79,170,NA,right,right,TRUE,1103.0999999940395,NA,NA
2,1,P11,C,processing,#5737ae,#FFFFFF,image179,15.5,image405,10,NA,left,left,TRUE,886.3999999910593,NA,NA
2,1,P11,C,processing,#da1046,#FFFFFF,image125,5.1,image405,10,NA,right,right,TRUE,1240.9000000059605,NA,NA
2,1,P11,C,processing,#FFFFFF,#158445,image405,10,image228,250,NA,right,right,TRUE,1301.7999999970198,NA,NA
2,1,P12,C,processing,#FFFFFF,#861d96,image405,10,image356,5.5,NA,left,right,FALSE,1057.4000000059605,NA,NA
2,1,P12,C,processing,#FFFFFF,#2a92bb,image405,10,image54,7,NA,left,right,FALSE,855.9000000059605,NA,NA
2,1,P12,C,processing,#406e35,#FFFFFF,image256,10.2,image405,10,NA,left,left,TRUE,1110.7000000029802,NA,NA
2,1,P12,C,processing,#ab5930,#FFFFFF,image273,999,image405,10,NA,left,left,TRUE,777,NA,NA
2,1,P13,C,processing,#6aa64e,#FFFFFF,image30,19.4,image405,10,NA,left,left,TRUE,923.5,NA,NA
2,1,P13,C,processing,#FFFFFF,#562475,image405,10,image61,6,NA,left,left,TRUE,1637.300000011921,NA,NA
2,1,P13,C,processing,#FFFFFF,#a94942,image405,10,image171,9.6,NA,left,right,FALSE,1064.7999999970198,NA,NA
2,1,P13,C,processing,#126d97,#FFFFFF,image115,9.4,image405,10,NA,right,left,FALSE,786.5,NA,NA
2,1,P14,C,processing,#e09b10,#FFFFFF,image104,6,image405,10,NA,right,left,FALSE,1114.4000000059605,NA,NA
2,1,P14,C,processing,#FFFFFF,#aa22a8,image405,10,image171,9.6,NA,left,right,FALSE,1153,NA,NA
2,1,P14,C,processing,#365c72,#FFFFFF,image167,17.4,image405,10,NA,left,left,TRUE,1282.5,NA,NA
2,1,P14,C,processing,#366d2c,#FFFFFF,image396,34,image405,10,NA,left,left,TRUE,1823.5,NA,NA
2,1,P15,C,processing,#FFFFFF,#c624a9,image405,10,image13,15,NA,right,left,FALSE,1399.2000000029802,NA,NA
2,1,P15,C,processing,#2272d3,#FFFFFF,image292,6.8,image405,10,NA,right,left,FALSE,1021.2000000029802,NA,NA
2,1,P15,C,processing,#FFFFFF,#bc9220,image405,10,image47,12,NA,right,right,TRUE,1162,NA,NA
2,1,P15,C,processing,#366841,#FFFFFF,image90,23,image405,10,NA,left,left,TRUE,1094.7000000029802,NA,NA
2,1,P16,C,processing,#FFFFFF,#6c7632,image405,10,image7,3,NA,left,left,TRUE,2009.5999999940395,NA,NA
2,1,P16,C,processing,#FFFFFF,#6f25d0,image405,10,image109,8,NA,left,left,TRUE,1748.0999999940395,NA,NA
2,1,P16,C,processing,#2f7562,#FFFFFF,image29,30,image405,10,NA,left,right,FALSE,1489.7000000029802,NA,NA
2,1,P16,C,processing,#FFFFFF,#8e2e4d,image405,10,image2,6.3,NA,left,left,TRUE,1756.7999999970198,NA,NA
2,1,P17,C,processing,#9a9f50,#FFFFFF,image209,5.5,image405,10,NA,right,right,TRUE,1662.300000011921,NA,NA
2,1,P17,C,processing,#822753,#FFFFFF,image236,11,image405,10,NA,left,right,FALSE,1674.5,NA,NA
2,1,P17,C,processing,#433a6e,#FFFFFF,image369,200,image405,10,NA,left,left,TRUE,1337.5,NA,NA
2,1,P17,C,processing,#FFFFFF,#2f9d5d,image405,10,image371,7.1,NA,left,right,FALSE,1709.2000000029802,NA,NA
2,1,P18,C,processing,#FFFFFF,#584baf,image405,10,image50,8,NA,left,left,TRUE,1145,NA,NA
2,1,P18,C,processing,#b53b63,#FFFFFF,image265,9.6,image405,10,NA,right,left,FALSE,1078.5,NA,NA
2,1,P18,C,processing,#43986e,#FFFFFF,image6,20,image405,10,NA,left,left,TRUE,1398.3999999910593,NA,NA
2,1,P18,C,processing,#8aa720,#FFFFFF,image120,450,image405,10,NA,left,left,TRUE,803.2000000029802,NA,NA
2,1,P19,C,processing,#48ab3b,#FFFFFF,image302,11,image405,10,NA,left,left,TRUE,1073.699999988079,NA,NA
2,1,P19,C,processing,#FFFFFF,#315e90,image405,10,image335,6.3,NA,left,right,FALSE,1040.5,NA,NA
2,1,P19,C,processing,#FFFFFF,#8b754b,image405,10,image393,204,NA,right,right,TRUE,818.5,NA,NA
2,1,P19,C,processing,#FFFFFF,#c221c4,image405,10,image329,8,NA,left,left,TRUE,1318.300000011921,NA,NA
2,1,P20,C,processing,#FFFFFF,#542aa7,image405,10,image202,2.9,NA,left,left,TRUE,1488.7000000029802,NA,NA
2,1,P20,C,processing,#FFFFFF,#b62f36,image405,10,image92,4,NA,left,left,TRUE,1225.1000000089407,NA,NA
2,1,P20,C,processing,#FFFFFF,#6ead34,image405,10,image404,7.5,NA,left,left,TRUE,1493.9000000059605,NA,NA
2,1,P20,C,processing,#FFFFFF,#307682,image405,10,image102,700,NA,right,right,TRUE,953.4000000059605,NA,NA
2,1,P21,C,processing,#FFFFFF,#7d482b,image405,10,image136,33,NA,right,right,TRUE,1507.6000000089407,NA,NA
2,1,P21,C,processing,#FFFFFF,#1481b3,image405,10,image15,12,NA,right,left,FALSE,1077.5,NA,NA
2,1,P21,C,processing,#FFFFFF,#823b87,image405,10,image118,13.6,NA,right,right,TRUE,1061.6000000089407,NA,NA
2,1,P21,C,processing,#FFFFFF,#4aa037,image405,10,image3,12,NA,right,left,FALSE,1144.1000000089407,NA,NA
2,1,P22,C,processing,#FFFFFF,#c42183,image405,10,image129,17,NA,right,right,TRUE,1012.9000000059605,NA,NA
2,1,P22,C,processing,#3947a2,#FFFFFF,image368,18.5,image405,10,NA,left,right,FALSE,1130.9000000059605,NA,NA
2,1,P22,C,processing,#968945,#FFFFFF,image385,48,image405,10,NA,left,left,TRUE,911,NA,NA
2,1,P22,C,processing,#4baa71,#FFFFFF,image381,12,image405,10,NA,left,right,FALSE,1269.2000000029802,NA,NA
2,1,P23,C,processing,#1ea984,#FFFFFF,image126,11,image405,10,NA,left,left,TRUE,850.5,NA,NA
2,1,P23,C,processing,#c03966,#FFFFFF,image8,96,image405,10,NA,left,left,TRUE,968.2000000029802,NA,NA
2,1,P23,C,processing,#5d4f96,#FFFFFF,image314,6.5,image405,10,NA,right,right,TRUE,1165.2999999970198,NA,NA
2,1,P23,C,processing,#FFFFFF,#7e970c,image405,10,image83,140,NA,right,right,TRUE,1098.9000000059605,NA,NA
2,1,P24,C,processing,#FFFFFF,#a04067,image405,10,image209,5.5,NA,left,right,FALSE,994.2000000029802,NA,NA
2,1,P24,C,processing,#FFFFFF,#a3af3c,image405,10,image134,7,NA,left,right,FALSE,1594.0999999940395,NA,NA
2,1,P24,C,processing,#FFFFFF,#3f20bc,image405,10,image431,14.8,NA,right,right,TRUE,942.0999999940395,NA,NA
2,1,P24,C,processing,#3db89f,#FFFFFF,image152,180,image405,10,NA,left,left,TRUE,1740,NA,NA
2,1,P25,C,processing,#c7da1b,#FFFFFF,image32,105,image405,10,NA,left,left,TRUE,2036.1000000089407,NA,NA
2,1,P25,C,processing,#1cd490,#FFFFFF,image278,21.6,image405,10,NA,left,left,TRUE,996.4000000059605,NA,NA
2,1,P25,C,processing,#FFFFFF,#1829e2,image405,10,image133,300,NA,right,right,TRUE,1353.2999999970198,NA,NA
2,1,P25,C,processing,#7a385b,#FFFFFF,image285,240,image405,10,NA,left,left,TRUE,1030.7999999970198,NA,NA
2,1,1,C,memory-resp,#FFFFFF,#6d5536,image405,10,image241,90,NA,right,right,TRUE,1558.7999999970198,image241,image241
2,1,1,C,memory-resp,#1d6195,#FFFFFF,image414,55,image405,10,NA,left,left,TRUE,1252.5,image414,image414
2,1,1,C,memory-resp,#FFFFFF,#4f9442,image405,10,image421,14,NA,right,left,FALSE,1158.0999999940395,image421,image421
2,1,1,C,memory-resp,#712574,#FFFFFF,image143,72,image405,10,NA,left,right,FALSE,1482.4000000059605,image143,image143
2,1,1,C,retrieval,NA,NA,NA,NA,NA,NA,image241,NA,image241,TRUE,3628.5999999940395,image241,image241
2,1,1,C,retrieval,NA,NA,NA,NA,NA,NA,image421,NA,image421,TRUE,3510.7999999970198,image421,image241
2,1,1,C,retrieval,NA,NA,NA,NA,NA,NA,image143,NA,image143,TRUE,3219.5999999940395,image143,image241
2,1,1,C,retrieval,NA,NA,NA,NA,NA,NA,image414,NA,image414,TRUE,3079.2000000029802,image414,image241
2,1,2,C,memory-resp,#409a19,#FFFFFF,image2,6.3,image405,10,NA,right,right,TRUE,1280.2999999970198,image2,image405
2,1,2,C,memory-resp,#FFFFFF,#18b3bf,image405,10,image128,7.7,NA,left,right,FALSE,1524.3999999910593,image128,image405
2,1,2,C,memory-resp,#9b5e46,#FFFFFF,image399,9,image405,10,NA,right,right,TRUE,1434.8999999910593,image399,image405
2,1,2,C,memory-resp,#FFFFFF,#741c87,image405,10,image332,12.2,NA,right,left,FALSE,1218.7000000029802,image332,image332
2,1,2,C,retrieval,NA,NA,NA,NA,NA,NA,image399,NA,image399,TRUE,3059.4000000059605,image399,image405
2,1,2,C,retrieval,NA,NA,NA,NA,NA,NA,image332,NA,image332,TRUE,2878,image332,image405
2,1,2,C,retrieval,NA,NA,NA,NA,NA,NA,image128,NA,image128,TRUE,2485.7999999970198,image128,image405
2,1,2,C,retrieval,NA,NA,NA,NA,NA,NA,image2,NA,image2,TRUE,2008.7000000029802,image2,image405
2,1,3,C,memory-resp,#FFFFFF,#30b9c5,image405,10,image296,7,NA,left,right,FALSE,1415.800000011921,image296,image405
2,1,3,C,memory-resp,#882999,#FFFFFF,image262,7.5,image405,10,NA,right,left,FALSE,1394.0999999940395,image262,image405
2,1,3,C,memory-resp,#3cd91c,#FFFFFF,image381,12,image405,10,NA,left,right,FALSE,1149,image381,image381
2,1,3,C,memory-resp,#994324,#FFFFFF,image338,12,image405,10,NA,left,left,TRUE,1561.2000000029802,image338,image338
2,1,3,C,retrieval,NA,NA,NA,NA,NA,NA,image381,NA,image381,TRUE,3191.699999988079,image381,image405
2,1,3,C,retrieval,NA,NA,NA,NA,NA,NA,image338,NA,image338,TRUE,4408.9000000059605,image338,image405
2,1,3,C,retrieval,NA,NA,NA,NA,NA,NA,image296,NA,image296,TRUE,3926,image296,image405
2,1,3,C,retrieval,NA,NA,NA,NA,NA,NA,image262,NA,image262,TRUE,1917.7999999970198,image262,image405
2,1,4,C,memory-resp,#FFFFFF,#4ca249,image405,10,image256,10.2,NA,right,left,FALSE,1312.7999999970198,image256,image256
2,1,4,C,memory-resp,#FFFFFF,#39567f,image405,10,image34,210,NA,right,right,TRUE,1393.8999999910593,image34,image34
2,1,4,C,memory-resp,#a48e46,#FFFFFF,image302,11,image405,10,NA,left,left,TRUE,1133.7000000029802,image302,image302
2,1,4,C,memory-resp,#FFFFFF,#955086,image405,10,image116,14.5,NA,right,right,TRUE,1287.9000000059605,image116,image116
2,1,4,C,retrieval,NA,NA,NA,NA,NA,NA,image302,NA,image302,TRUE,3979.2000000029802,image302,image256
2,1,4,C,retrieval,NA,NA,NA,NA,NA,NA,image116,NA,image116,TRUE,3241.7999999970198,image116,image256
2,1,4,C,retrieval,NA,NA,NA,NA,NA,NA,image34,NA,image34,TRUE,2463,image34,image256
2,1,4,C,retrieval,NA,NA,NA,NA,NA,NA,image256,NA,image256,TRUE,2612.2000000029802,image256,image256
2,1,5,C,memory-resp,#d13a1f,#FFFFFF,image132,15,image405,10,NA,left,left,TRUE,2335.5999999940395,image132,image132
2,1,5,C,memory-resp,#FFFFFF,#20b1b6,image405,10,image98,15,NA,right,left,FALSE,1174.2999999970198,image98,image98
2,1,5,C,memory-resp,#497439,#FFFFFF,image237,8.1,image405,10,NA,right,right,TRUE,1587.7000000029802,image237,image405
2,1,5,C,memory-resp,#7d1d9f,#FFFFFF,image362,24.2,image405,10,NA,left,left,TRUE,1409.8999999910593,image362,image362
2,1,5,C,retrieval,NA,NA,NA,NA,NA,NA,image98,NA,image98,TRUE,3466.0999999940395,image98,image132
2,1,5,C,retrieval,NA,NA,NA,NA,NA,NA,image362,NA,image362,TRUE,2563.2000000029802,image362,image132
2,1,5,C,retrieval,NA,NA,NA,NA,NA,NA,image237,NA,image237,TRUE,1797.2000000029802,image237,image132
2,1,5,C,retrieval,NA,NA,NA,NA,NA,NA,image132,NA,image132,TRUE,3859.300000011921,image132,image132
2,1,6,C,memory-resp,#FFFFFF,#91834b,image405,10,image14,1,NA,left,left,TRUE,1703.8999999910593,image14,image405
2,1,6,C,memory-resp,#990f5d,#FFFFFF,image172,8,image405,10,NA,right,left,FALSE,1236.300000011921,image172,image405
2,1,6,C,memory-resp,#2e8a4e,#FFFFFF,image101,180,image405,10,NA,left,left,TRUE,1592.2999999970198,image101,image101
2,1,6,C,memory-resp,#1120a7,#FFFFFF,image263,5.4,image405,10,NA,right,left,FALSE,1513.7000000029802,image263,image405
2,1,6,C,retrieval,NA,NA,NA,NA,NA,NA,image263,NA,image263,TRUE,1702.2999999970198,image263,image405
2,1,6,C,retrieval,NA,NA,NA,NA,NA,NA,image172,NA,image172,TRUE,2868.7999999970198,image172,image405
2,1,6,C,retrieval,NA,NA,NA,NA,NA,NA,image101,NA,image101,TRUE,2504,image101,image405
2,1,6,C,retrieval,NA,NA,NA,NA,NA,NA,image14,NA,image14,TRUE,2218.2000000029802,image14,image405
2,1,7,C,memory-resp,#FFFFFF,#24bc10,image405,10,image222,200,NA,right,right,TRUE,2801.1000000089407,image222,image222
2,1,7,C,memory-resp,#FFFFFF,#a55640,image405,10,image260,999,NA,right,right,TRUE,1107.300000011921,image260,image260
2,1,7,C,memory-resp,#830e95,#FFFFFF,image17,7,image405,10,NA,right,left,FALSE,1081.6000000089407,image17,image405
2,1,7,C,memory-resp,#FFFFFF,#43849d,image405,10,image411,3.9,NA,left,right,FALSE,2683.800000011921,image411,image405
2,1,7,C,retrieval,NA,NA,NA,NA,NA,NA,image222,NA,image222,TRUE,3934.5,image222,image222
2,1,7,C,retrieval,NA,NA,NA,NA,NA,NA,image411,NA,image411,TRUE,2711.5,image411,image222
2,1,7,C,retrieval,NA,NA,NA,NA,NA,NA,image17,NA,image17,TRUE,2370.5,image17,image222
2,1,7,C,retrieval,NA,NA,NA,NA,NA,NA,image260,NA,image260,TRUE,1841.5,image260,image222
2,1,8,C,memory-resp,#FFFFFF,#b67535,image405,10,image57,2.5,NA,left,left,TRUE,1593.699999988079,image57,image405
2,1,8,C,memory-resp,#FFFFFF,#408742,image405,10,image408,7,NA,left,right,FALSE,1341.8999999910593,image408,image405
2,1,8,C,memory-resp,#33659e,#FFFFFF,image404,7.5,image405,10,NA,right,right,TRUE,1190,image404,image405
2,1,8,C,memory-resp,#FFFFFF,#ca0c94,image405,10,image161,8.7,NA,left,left,TRUE,2126.5999999940395,image161,image405
2,1,8,C,retrieval,NA,NA,NA,NA,NA,NA,image404,NA,image404,TRUE,3151.1000000089407,image404,image405
2,1,8,C,retrieval,NA,NA,NA,NA,NA,NA,image408,NA,image408,TRUE,2499.9000000059605,image408,image405
2,1,8,C,retrieval,NA,NA,NA,NA,NA,NA,image161,NA,image161,TRUE,3179.2999999970198,image161,image405
2,1,8,C,retrieval,NA,NA,NA,NA,NA,NA,image57,NA,image57,TRUE,2814.5999999940395,image57,image405
2,1,9,C,memory-resp,#4b9442,#FFFFFF,image53,6.4,image405,10,NA,right,right,TRUE,1791.6000000089407,image53,image405
2,1,9,C,memory-resp,#792a72,#FFFFFF,image357,4.3,image405,10,NA,right,left,FALSE,1242.4000000059605,image357,image405
2,1,9,C,memory-resp,#FFFFFF,#3c66b9,image405,10,image119,0.4,NA,left,left,TRUE,1033.800000011921,image119,image405
2,1,9,C,memory-resp,#de8817,#FFFFFF,image99,16.5,image405,10,NA,left,left,TRUE,1092.7999999970198,image99,image99
2,1,9,C,retrieval,NA,NA,NA,NA,NA,NA,image99,NA,image99,TRUE,1297.5,image99,image405
2,1,9,C,retrieval,NA,NA,NA,NA,NA,NA,image357,NA,image357,TRUE,2955.2000000029802,image357,image405
2,1,9,C,retrieval,NA,NA,NA,NA,NA,NA,image53,NA,image53,TRUE,3075.8999999910593,image53,image405
2,1,9,C,retrieval,NA,NA,NA,NA,NA,NA,image119,NA,image119,TRUE,1949.4000000059605,image119,image405
2,1,10,C,memory-resp,#a95e0f,#FFFFFF,image424,52.2,image405,10,NA,left,left,TRUE,1377.5,image424,image424
2,1,10,C,memory-resp,#16990b,#FFFFFF,image187,300,image405,10,NA,left,left,TRUE,1055.300000011921,image187,image187
2,1,10,C,memory-resp,#FFFFFF,#3a5d92,image405,10,image329,8,NA,left,left,TRUE,1002.5999999940395,image329,image405
2,1,10,C,memory-resp,#FFFFFF,#cf20b8,image405,10,image140,2,NA,left,left,TRUE,1156.300000011921,image140,image405
2,1,10,C,retrieval,NA,NA,NA,NA,NA,NA,image187,NA,image187,TRUE,3848.5999999940395,image187,image424
2,1,10,C,retrieval,NA,NA,NA,NA,NA,NA,image140,NA,image140,TRUE,3069.800000011921,image140,image424
2,1,10,C,retrieval,NA,NA,NA,NA,NA,NA,image329,NA,image329,TRUE,1976.7999999970198,image329,image424
2,1,10,C,retrieval,NA,NA,NA,NA,NA,NA,image424,NA,image424,TRUE,2123.0999999940395,image424,image424
2,1,11,C,memory-resp,#92610c,#FFFFFF,image297,7.9,image405,10,NA,right,left,FALSE,1208.4000000059605,image297,image405
2,1,11,C,memory-resp,#1b3d8d,#FFFFFF,image229,25,image405,10,NA,left,left,TRUE,1109.2999999970198,image229,image229
2,1,11,C,memory-resp,#FFFFFF,#7e2672,image405,10,image290,8.5,NA,left,right,FALSE,1306.8999999910593,image290,image405
2,1,11,C,memory-resp,#FFFFFF,#489d4d,image405,10,image208,11,NA,right,right,TRUE,1931.0999999940395,image208,image208
2,1,11,C,retrieval,NA,NA,NA,NA,NA,NA,image208,NA,image208,TRUE,1610,image208,image405
2,1,11,C,retrieval,NA,NA,NA,NA,NA,NA,image290,NA,image290,TRUE,1857.9000000059605,image290,image405
2,1,11,C,retrieval,NA,NA,NA,NA,NA,NA,image229,NA,image229,TRUE,2647.3999999910593,image229,image405
2,1,11,C,retrieval,NA,NA,NA,NA,NA,NA,image297,NA,image297,TRUE,2588.7999999970198,image297,image405
2,1,12,C,memory-resp,#FFFFFF,#489d5b,image405,10,image335,6.3,NA,left,right,FALSE,1547.9000000059605,image335,image405
2,1,12,C,memory-resp,#e7a013,#FFFFFF,image247,999,image405,10,NA,left,right,FALSE,1223.0999999940395,image247,image247
2,1,12,C,memory-resp,#FFFFFF,#234e8b,image405,10,image38,6.5,NA,left,left,TRUE,1218.5999999940395,image38,image405
2,1,12,C,memory-resp,#FFFFFF,#b329b3,image405,10,image407,5,NA,left,left,TRUE,1296.7000000029802,image407,image405
2,1,12,C,retrieval,NA,NA,NA,NA,NA,NA,image407,NA,image407,TRUE,2142.6000000089407,image407,image405
2,1,12,C,retrieval,NA,NA,NA,NA,NA,NA,image38,NA,image38,TRUE,1630.3999999910593,image38,image405
2,1,12,C,retrieval,NA,NA,NA,NA,NA,NA,image247,NA,image247,TRUE,1946.2999999970198,image247,image405
2,1,12,C,retrieval,NA,NA,NA,NA,NA,NA,image335,NA,image335,TRUE,1723.5999999940395,image335,image405
2,1,13,C,memory-resp,#2c6d31,#FFFFFF,image172,8,image405,10,NA,right,left,FALSE,1561.2000000029802,image172,image405
2,1,13,C,memory-resp,#466ca4,#FFFFFF,image182,800,image405,10,NA,left,left,TRUE,926,image182,image182
2,1,13,C,memory-resp,#b63aae,#FFFFFF,image358,16.2,image405,10,NA,left,left,TRUE,1389.6000000089407,image358,image358
2,1,13,C,memory-resp,#ca7d2f,#FFFFFF,image343,16,image405,10,NA,left,right,FALSE,1373.2000000029802,image343,image343
2,1,13,C,retrieval,NA,NA,NA,NA,NA,NA,image343,NA,image343,TRUE,1429.9000000059605,image343,image405
2,1,13,C,retrieval,NA,NA,NA,NA,NA,NA,image172,NA,image172,TRUE,3214.7000000029802,image172,image405
2,1,13,C,retrieval,NA,NA,NA,NA,NA,NA,image182,NA,image182,TRUE,1625.2999999970198,image182,image405
2,1,13,C,retrieval,NA,NA,NA,NA,NA,NA,image358,NA,image358,TRUE,2235.2000000029802,image358,image405
2,1,14,C,memory-resp,#a55e27,#FFFFFF,image259,30,image405,10,NA,left,left,TRUE,1212.9000000059605,image259,image259
2,1,14,C,memory-resp,#FFFFFF,#19b110,image405,10,image126,11,NA,right,right,TRUE,1156.9000000059605,image126,image126
2,1,14,C,memory-resp,#89438e,#FFFFFF,image263,5.4,image405,10,NA,right,right,TRUE,1293,image263,image405
2,1,14,C,memory-resp,#145e90,#FFFFFF,image258,7,image405,10,NA,right,right,TRUE,1095.8999999910593,image258,image405
2,1,14,C,retrieval,NA,NA,NA,NA,NA,NA,image263,NA,image263,TRUE,2441.4000000059605,image263,image259
2,1,14,C,retrieval,NA,NA,NA,NA,NA,NA,image126,NA,image126,TRUE,1652.7000000029802,image126,image259
2,1,14,C,retrieval,NA,NA,NA,NA,NA,NA,image258,NA,image258,TRUE,4031.800000011921,image258,image259
2,1,14,C,retrieval,NA,NA,NA,NA,NA,NA,image259,NA,image259,TRUE,2272.4000000059605,image259,image259
2,1,15,C,memory-resp,#58ac35,#FFFFFF,image72,3,image405,10,NA,right,right,TRUE,1216.2000000029802,image72,image405
2,1,15,C,memory-resp,#7e3426,#FFFFFF,image199,7,image405,10,NA,right,left,FALSE,1282.2999999970198,image199,image405
2,1,15,C,memory-resp,#a510e5,#FFFFFF,image78,999,image405,10,NA,left,left,TRUE,964.5999999940395,image78,image78
2,1,15,C,memory-resp,#16b6bb,#FFFFFF,image164,13.5,image405,10,NA,left,left,TRUE,1077.5,image164,image164
2,1,15,C,retrieval,NA,NA,NA,NA,NA,NA,image199,NA,image199,TRUE,4469.79999999702,image199,image405
2,1,15,C,retrieval,NA,NA,NA,NA,NA,NA,image78,NA,image78,TRUE,3584.6000000089407,image78,image405
2,1,15,C,retrieval,NA,NA,NA,NA,NA,NA,image72,NA,image72,TRUE,4244.5999999940395,image72,image405
2,1,15,C,retrieval,NA,NA,NA,NA,NA,NA,image164,NA,image164,TRUE,3287.7000000029802,image164,image405
2,2,P1,D,processing,#b1533e,#FFFFFF,image321,40,image27,6,NA,left,left,TRUE,1370.8999999910593,NA,NA
2,2,P1,D,processing,#FFFFFF,#428f0f,image328,40,image111,8,NA,left,right,FALSE,1966.9000000059605,NA,NA
2,2,P1,D,processing,#FFFFFF,#6323a4,image146,95,image149,29.3,NA,left,left,TRUE,1245.2000000029802,NA,NA
2,2,P1,D,processing,#FFFFFF,#17888c,image139,9.6,image312,20.5,NA,right,right,TRUE,2019.2000000029802,NA,NA
2,2,P2,D,processing,#41bc38,#FFFFFF,image117,10,image341,5,NA,left,left,TRUE,1720.2999999970198,NA,NA
2,2,P2,D,processing,#a84c1a,#FFFFFF,image66,999,image298,12.4,NA,left,right,FALSE,1566.5,NA,NA
2,2,P2,D,processing,#FFFFFF,#633979,image93,1.5,image273,999,NA,right,right,TRUE,1225,NA,NA
2,2,P2,D,processing,#136f86,#FFFFFF,image60,165,image177,15,NA,left,left,TRUE,1845,NA,NA
2,2,P3,D,processing,#c29a24,#FFFFFF,image136,33,image182,800,NA,right,right,TRUE,1384.8999999910593,NA,NA
2,2,P3,D,processing,#FFFFFF,#32a94c,image193,85,image377,8.7,NA,left,left,TRUE,1520,NA,NA
2,2,P3,D,processing,#960d68,#FFFFFF,image307,28,image96,180,NA,right,left,FALSE,1165.699999988079,NA,NA
2,2,P3,D,processing,#FFFFFF,#3d4fa9,image30,19.4,image86,4.5,NA,left,left,TRUE,1246.4000000059605,NA,NA
2,2,P4,D,processing,#FFFFFF,#2bc011,image157,95,image160,0.7,NA,left,left,TRUE,1279,NA,NA
2,2,P4,D,processing,#FFFFFF,#7d1ba7,image43,18,image64,960,NA,right,right,TRUE,1168.9000000059605,NA,NA
2,2,P4,D,processing,#FFFFFF,#83461b,image65,450,image54,7,NA,left,left,TRUE,1297.3999999910593,NA,NA
2,2,P4,D,processing,#FFFFFF,#189daf,image314,6.5,image418,25,NA,right,right,TRUE,1221.9000000059605,NA,NA
2,2,P5,D,processing,#9f232b,#FFFFFF,image351,450,image261,9.5,NA,left,right,FALSE,1637.3999999910593,NA,NA
2,2,P5,D,processing,#8426a6,#FFFFFF,image361,26.5,image235,3.5,NA,left,left,TRUE,1482.2000000029802,NA,NA
2,2,P5,D,processing,#3bb0b0,#FFFFFF,image346,950,image215,153,NA,left,left,TRUE,1459.5999999940395,NA,NA
2,2,P5,D,processing,#489509,#FFFFFF,image42,100,image81,2.7,NA,left,left,TRUE,1588.8999999910593,NA,NA
2,2,P6,D,processing,#10b143,#FFFFFF,image139,9.6,image390,36.8,NA,right,right,TRUE,1669.300000011921,NA,NA
2,2,P6,D,processing,#FFFFFF,#98528c,image332,12.2,image345,60,NA,right,right,TRUE,1539.4000000059605,NA,NA
2,2,P6,D,processing,#FFFFFF,#273782,image258,7,image328,40,NA,right,right,TRUE,1555.2999999970198,NA,NA
2,2,P6,D,processing,#FFFFFF,#98701f,image32,105,image148,30,NA,left,left,TRUE,1052.2999999970198,NA,NA
2,2,P7,D,processing,#611d7c,#FFFFFF,image173,999,image412,10.5,NA,left,left,TRUE,1195.5,NA,NA
2,2,P7,D,processing,#FFFFFF,#487689,image214,80,image298,12.4,NA,left,left,TRUE,1410.7000000029802,NA,NA
2,2,P7,D,processing,#FFFFFF,#b5451c,image37,4.2,image32,105,NA,right,right,TRUE,1082.300000011921,NA,NA
2,2,P7,D,processing,#FFFFFF,#37b215,image117,10,image141,30,NA,right,right,TRUE,1412.7999999970198,NA,NA
2,2,P8,D,processing,#FFFFFF,#ac4dab,image365,5,image9,36,NA,right,right,TRUE,2208,NA,NA
2,2,P8,D,processing,#795a3e,#FFFFFF,image266,1.5,image16,999,NA,right,right,TRUE,1648.9000000059605,NA,NA
2,2,P8,D,processing,#418caf,#FFFFFF,image178,999,image194,240,NA,left,left,TRUE,1243.300000011921,NA,NA
2,2,P8,D,processing,#FFFFFF,#24be13,image302,11,image344,4,NA,left,left,TRUE,1781.199999988079,NA,NA
2,2,P9,D,processing,#FFFFFF,#42509e,image59,0.8,image415,20,NA,right,right,TRUE,1378.5,NA,NA
2,2,P9,D,processing,#7c315c,#FFFFFF,image149,29.3,image235,3.5,NA,left,left,TRUE,1087.0999999940395,NA,NA
2,2,P9,D,processing,#FFFFFF,#0b9852,image279,34.7,image296,7,NA,left,left,TRUE,1404.2999999970198,NA,NA
2,2,P9,D,processing,#FFFFFF,#999e15,image186,999,image95,1,NA,left,left,TRUE,1898.7000000029802,NA,NA
2,2,P10,D,processing,#FFFFFF,#8f6242,image408,7,image57,2.5,NA,left,left,TRUE,2014.4000000059605,NA,NA
2,2,P10,D,processing,#418eaa,#FFFFFF,image212,8,image81,2.7,NA,left,left,TRUE,1294.7000000029802,NA,NA
2,2,P10,D,processing,#6f2287,#FFFFFF,image182,800,image83,140,NA,left,right,FALSE,1384.300000011921,NA,NA
2,2,P10,D,processing,#38bc29,#FFFFFF,image402,30,image77,120,NA,right,right,TRUE,1784.9000000059605,NA,NA
2,2,P11,D,processing,#811d30,#FFFFFF,image351,450,image9,36,NA,left,left,TRUE,1705.5,NA,NA
2,2,P11,D,processing,#FFFFFF,#16aca7,image42,100,image395,8.2,NA,left,left,TRUE,2460.2000000029802,NA,NA
2,2,P11,D,processing,#52159d,#FFFFFF,image152,180,image427,40,NA,left,left,TRUE,1313.800000011921,NA,NA
2,2,P11,D,processing,#6f7e35,#FFFFFF,image167,17.4,image317,3,NA,left,left,TRUE,1334.2999999970198,NA,NA
2,2,P12,D,processing,#FFFFFF,#16b656,image201,20,image321,40,NA,right,right,TRUE,1128.5,NA,NA
2,2,P12,D,processing,#c93191,#FFFFFF,image390,36.8,image133,300,NA,right,right,TRUE,1977.4000000059605,NA,NA
2,2,P12,D,processing,#636b38,#FFFFFF,image174,999,image144,60,NA,left,left,TRUE,1177.5,NA,NA
2,2,P12,D,processing,#37288a,#FFFFFF,image305,0.2,image326,1.9,NA,right,right,TRUE,1182.1000000089407,NA,NA
2,2,P13,D,processing,#FFFFFF,#864988,image300,800,image302,11,NA,left,left,TRUE,1494.1000000089407,NA,NA
2,2,P13,D,processing,#1b83bb,#FFFFFF,image424,52.2,image280,20,NA,left,right,FALSE,1940.8999999910593,NA,NA
2,2,P13,D,processing,#257e20,#FFFFFF,image35,999,image232,180,NA,left,right,FALSE,1640.4000000059605,NA,NA
2,2,P13,D,processing,#FFFFFF,#b95e37,image28,10,image190,150,NA,right,right,TRUE,2221.8999999910593,NA,NA
2,2,P14,D,processing,#994714,#FFFFFF,image55,75,image280,20,NA,left,right,FALSE,1185.8999999910593,NA,NA
2,2,P14,D,processing,#FFFFFF,#71336e,image78,999,image142,1,NA,left,left,TRUE,1187.4000000059605,NA,NA
2,2,P14,D,processing,#FFFFFF,#3073b5,image44,10,image369,200,NA,right,right,TRUE,1033,NA,NA
2,2,P14,D,processing,#32a512,#FFFFFF,image161,8.7,image21,20,NA,right,right,TRUE,1846.4000000059605,NA,NA
2,2,P15,D,processing,#572c6d,#FFFFFF,image363,11.3,image52,800,NA,right,right,TRUE,1292.7999999970198,NA,NA
2,2,P15,D,processing,#9e4a47,#FFFFFF,image193,85,image233,6.2,NA,left,left,TRUE,1862.4000000059605,NA,NA
2,2,P15,D,processing,#52783a,#FFFFFF,image261,9.5,image272,35,NA,right,right,TRUE,1742.4000000059605,NA,NA
2,2,P15,D,processing,#0ba7bc,#FFFFFF,image189,400,image126,11,NA,left,left,TRUE,1738.2000000029802,NA,NA
2,2,P16,D,processing,#8b4a27,#FFFFFF,image338,12,image400,42,NA,right,right,TRUE,1955,NA,NA
2,2,P16,D,processing,#FFFFFF,#2f53a2,image171,9.6,image8,96,NA,right,right,TRUE,2233.7999999970198,NA,NA
2,2,P16,D,processing,#1f892d,#FFFFFF,image293,60.2,image111,8,NA,left,left,TRUE,1715.199999988079,NA,NA
2,2,P16,D,processing,#FFFFFF,#94199f,image193,85,image40,999,NA,right,left,FALSE,1611.2000000029802,NA,NA
2,2,P17,D,processing,#FFFFFF,#a36f3e,image116,14.5,image328,40,NA,right,left,FALSE,1171.7000000029802,NA,NA
2,2,P17,D,processing,#FFFFFF,#954d99,image414,55,image423,5,NA,left,left,TRUE,1112.1000000089407,NA,NA
2,2,P17,D,processing,#FFFFFF,#4bb93c,image139,9.6,image305,0.2,NA,left,left,TRUE,1078.2000000029802,NA,NA
2,2,P17,D,processing,#FFFFFF,#14c3e6,image202,2.9,image230,999,NA,right,right,TRUE,1365.800000011921,NA,NA
2,2,P18,D,processing,#FFFFFF,#b11657,image201,20,image317,3,NA,left,left,TRUE,1131.7999999970198,NA,NA
2,2,P18,D,processing,#FFFFFF,#368c5e,image213,0.7,image4,7,NA,right,right,TRUE,1125.3999999910593,NA,NA
2,2,P18,D,processing,#FFFFFF,#30316e,image319,34,image86,4.5,NA,left,left,TRUE,1306.2999999970198,NA,NA
2,2,P18,D,processing,#92954b,#FFFFFF,image351,450,image278,21.6,NA,left,left,TRUE,1273.7000000029802,NA,NA
2,2,P19,D,processing,#358d7f,#FFFFFF,image198,6.8,image278,21.6,NA,right,left,FALSE,1645.0999999940395,NA,NA
2,2,P19,D,processing,#FFFFFF,#561cba,image350,3,image108,40,NA,right,right,TRUE,1619,NA,NA
2,2,P19,D,processing,#FFFFFF,#557e25,image420,150,image103,999,NA,right,right,TRUE,1064,NA,NA
2,2,P19,D,processing,#bb493e,#FFFFFF,image101,180,image370,58.5,NA,left,left,TRUE,2173,NA,NA
2,2,P20,D,processing,#21b024,#FFFFFF,image89,35,image394,10,NA,left,left,TRUE,1395.5999999940395,NA,NA
2,2,P20,D,processing,#FFFFFF,#2f8ac6,image329,8,image415,20,NA,right,right,TRUE,1147,NA,NA
2,2,P20,D,processing,#FFFFFF,#7c572d,image181,999,image166,30,NA,left,right,FALSE,1334.699999988079,NA,NA
2,2,P20,D,processing,#873c9a,#FFFFFF,image110,8,image107,200,NA,right,right,TRUE,1082.2999999970198,NA,NA
2,2,P21,D,processing,#FFFFFF,#9eb329,image368,18.5,image345,60,NA,right,right,TRUE,1221.9000000059605,NA,NA
2,2,P21,D,processing,#FFFFFF,#3eac93,image71,8,image343,16,NA,right,right,TRUE,1219,NA,NA
2,2,P21,D,processing,#c82d75,#FFFFFF,image173,999,image12,3,NA,left,left,TRUE,1064.6000000089407,NA,NA
2,2,P21,D,processing,#FFFFFF,#2a1f7f,image272,35,image198,6.8,NA,left,left,TRUE,1506.7999999970198,NA,NA
2,2,P22,D,processing,#FFFFFF,#3b7aba,image353,5,image186,999,NA,right,right,TRUE,1191.5,NA,NA
2,2,P22,D,processing,#FFFFFF,#a0520d,image378,13,image82,95,NA,right,right,TRUE,806.5999999940395,NA,NA
2,2,P22,D,processing,#FFFFFF,#88447e,image71,8,image414,55,NA,right,right,TRUE,848.7999999970198,NA,NA
2,2,P22,D,processing,#3f8f38,#FFFFFF,image167,17.4,image426,48,NA,right,left,FALSE,1067.5,NA,NA
2,2,P23,D,processing,#FFFFFF,#6d6e30,image424,52.2,image401,12,NA,left,left,TRUE,1106.5,NA,NA
2,2,P23,D,processing,#0d0dab,#FFFFFF,image189,400,image392,160,NA,left,left,TRUE,772.2999999970198,NA,NA
2,2,P23,D,processing,#98166c,#FFFFFF,image101,180,image278,21.6,NA,left,left,TRUE,1232.7999999970198,NA,NA
2,2,P23,D,processing,#0bb73c,#FFFFFF,image230,999,image26,45,NA,left,left,TRUE,794.1000000089407,NA,NA
2,2,P24,D,processing,#152499,#FFFFFF,image324,1.4,image88,3.5,NA,right,left,FALSE,1290.2000000029802,NA,NA
2,2,P24,D,processing,#34b268,#FFFFFF,image223,170,image230,999,NA,right,left,FALSE,801.2999999970198,NA,NA
2,2,P24,D,processing,#9ca90f,#FFFFFF,image226,70.2,image302,11,NA,left,left,TRUE,1288.699999988079,NA,NA
2,2,P24,D,processing,#FFFFFF,#a75279,image118,13.6,image159,120,NA,right,right,TRUE,1152.7000000029802,NA,NA
2,2,P25,D,processing,#47659a,#FFFFFF,image217,8.5,image299,300,NA,right,right,TRUE,1342.5999999940395,NA,NA
2,2,P25,D,processing,#FFFFFF,#b735c0,image425,700,image99,16.5,NA,left,left,TRUE,1531.3999999910593,NA,NA
2,2,P25,D,processing,#ea7d10,#FFFFFF,image241,90,image332,12.2,NA,left,left,TRUE,827.7000000029802,NA,NA
2,2,P25,D,processing,#FFFFFF,#28802a,image177,15,image134,7,NA,left,left,TRUE,1492.2999999970198,NA,NA
2,2,1,D,memory-resp,#FFFFFF,#c7233f,image397,0.5,image303,20,NA,right,right,TRUE,1425.5999999940395,image303,image303
2,2,1,D,memory-resp,#4aa57f,#FFFFFF,image423,5,image243,27.1,NA,right,left,FALSE,1268.5,image423,image243
2,2,1,D,memory-resp,#a5d70f,#FFFFFF,image431,14.8,image200,0.5,NA,left,left,TRUE,1261.699999988079,image431,image431
2,2,1,D,memory-resp,#FFFFFF,#262697,image313,10,image166,30,NA,right,right,TRUE,2163.7000000029802,image166,image166
2,2,1,D,retrieval,NA,NA,NA,NA,NA,NA,image423,NA,image423,TRUE,3015.8999999910593,image423,image303
2,2,1,D,retrieval,NA,NA,NA,NA,NA,NA,image431,NA,image431,TRUE,2628.699999988079,image431,image303
2,2,1,D,retrieval,NA,NA,NA,NA,NA,NA,image166,NA,image166,TRUE,1825,image166,image303
2,2,1,D,retrieval,NA,NA,NA,NA,NA,NA,image303,NA,image303,TRUE,3772.7999999970198,image303,image303
2,2,2,D,memory-resp,#FFFFFF,#983a5e,image176,170,image404,7.5,NA,left,left,TRUE,1513.2000000029802,image404,image176
2,2,2,D,memory-resp,#828736,#FFFFFF,image181,999,image5,27.1,NA,left,left,TRUE,1557.2999999970198,image181,image181
2,2,2,D,memory-resp,#FFFFFF,#312fc6,image273,999,image429,40,NA,left,left,TRUE,957.2000000029802,image429,image273
2,2,2,D,memory-resp,#11a663,#FFFFFF,image252,12,image209,5.5,NA,left,left,TRUE,1480.7000000029802,image252,image252
2,2,2,D,retrieval,NA,NA,NA,NA,NA,NA,image252,NA,image252,TRUE,985.8999999910593,image252,image176
2,2,2,D,retrieval,NA,NA,NA,NA,NA,NA,image404,NA,image404,TRUE,4107.20000000298,image404,image176
2,2,2,D,retrieval,NA,NA,NA,NA,NA,NA,image181,NA,image181,TRUE,1886.5,image181,image176
2,2,2,D,retrieval,NA,NA,NA,NA,NA,NA,image429,NA,image429,TRUE,2055.9000000059605,image429,image176
2,2,3,D,memory-resp,#FFFFFF,#608637,image72,3,image422,23,NA,right,right,TRUE,1471.0999999940395,image422,image422
2,2,3,D,memory-resp,#30c0bb,#FFFFFF,image361,26.5,image61,6,NA,left,left,TRUE,1230.4000000059605,image361,image361
2,2,3,D,memory-resp,#FFFFFF,#794baa,image298,12.4,image149,29.3,NA,right,right,TRUE,1838.7000000029802,image149,image149
2,2,3,D,memory-resp,#FFFFFF,#a85148,image89,35,image359,11,NA,left,right,FALSE,1348.7000000029802,image359,image89
2,2,3,D,retrieval,NA,NA,NA,NA,NA,NA,image422,NA,image422,TRUE,6570.79999999702,image422,image422
2,2,3,D,retrieval,NA,NA,NA,NA,NA,NA,image149,NA,image149,TRUE,2396.7999999970198,image149,image422
2,2,3,D,retrieval,NA,NA,NA,NA,NA,NA,image359,NA,image359,TRUE,3374.3999999910593,image359,image422
2,2,3,D,retrieval,NA,NA,NA,NA,NA,NA,image361,NA,image361,TRUE,1868.0999999940395,image361,image422
2,2,4,D,memory-resp,#FFFFFF,#713d71,image391,20,image284,200,NA,right,left,FALSE,1886.5,image284,image284
2,2,4,D,memory-resp,#FFFFFF,#286095,image52,800,image288,34,NA,left,left,TRUE,1300.6000000089407,image288,image52
2,2,4,D,memory-resp,#2a6f2f,#FFFFFF,image38,6.5,image207,24,NA,right,left,FALSE,1370.2000000029802,image38,image207
2,2,4,D,memory-resp,#FFFFFF,#ab5936,image328,40,image107,200,NA,right,right,TRUE,1458.2000000029802,image107,image107
2,2,4,D,retrieval,NA,NA,NA,NA,NA,NA,image288,NA,image288,TRUE,3759.2000000029802,image288,image284
2,2,4,D,retrieval,NA,NA,NA,NA,NA,NA,image38,NA,image38,TRUE,2406.9000000059605,image38,image284
2,2,4,D,retrieval,NA,NA,NA,NA,NA,NA,image107,NA,image107,TRUE,1861.300000011921,image107,image284
2,2,4,D,retrieval,NA,NA,NA,NA,NA,NA,image284,NA,image284,TRUE,2968.2000000029802,image284,image284
2,2,5,D,memory-resp,#FFFFFF,#927135,image7,3,image15,12,NA,right,right,TRUE,1637.5,image15,image15
2,2,5,D,memory-resp,#273f82,#FFFFFF,image102,700,image370,58.5,NA,left,right,FALSE,1044.1000000089407,image102,image102
2,2,5,D,memory-resp,#317d38,#FFFFFF,image351,450,image56,80,NA,left,left,TRUE,1438,image351,image351
2,2,5,D,memory-resp,#c01baa,#FFFFFF,image336,7,image429,40,NA,right,right,TRUE,1358,image336,image429
2,2,5,D,retrieval,NA,NA,NA,NA,NA,NA,image336,NA,image336,TRUE,1962.7000000029802,image336,image15
2,2,5,D,retrieval,NA,NA,NA,NA,NA,NA,image15,NA,image15,TRUE,3503.4000000059605,image15,image15
2,2,5,D,retrieval,NA,NA,NA,NA,NA,NA,image351,NA,image351,TRUE,3094.5,image351,image15
2,2,5,D,retrieval,NA,NA,NA,NA,NA,NA,image102,NA,image102,TRUE,1765.199999988079,image102,image15
2,2,6,D,memory-resp,#FFFFFF,#466d8b,image235,3.5,image141,30,NA,right,right,TRUE,1561.6000000089407,image141,image141
2,2,6,D,memory-resp,#8e662e,#FFFFFF,image420,150,image261,9.5,NA,left,left,TRUE,1156.5,image420,image420
2,2,6,D,memory-resp,#bb25a5,#FFFFFF,image32,105,image125,5.1,NA,left,left,TRUE,1075.2000000029802,image32,image32
2,2,6,D,memory-resp,#36a32e,#FFFFFF,image7,3,image295,7.1,NA,right,right,TRUE,1643.7999999970198,image7,image295
2,2,6,D,retrieval,NA,NA,NA,NA,NA,NA,image32,NA,image32,TRUE,2869.0999999940395,image32,image141
2,2,6,D,retrieval,NA,NA,NA,NA,NA,NA,image7,NA,image7,TRUE,1836.4000000059605,image7,image141
2,2,6,D,retrieval,NA,NA,NA,NA,NA,NA,image420,NA,image420,TRUE,1974.800000011921,image420,image141
2,2,6,D,retrieval,NA,NA,NA,NA,NA,NA,image141,NA,image141,TRUE,2116.6000000089407,image141,image141
2,2,7,D,memory-resp,#FFFFFF,#9dd11a,image49,20,image128,7.7,NA,left,left,TRUE,2112.6000000089407,image128,image49
2,2,7,D,memory-resp,#862b28,#FFFFFF,image195,160,image200,0.5,NA,left,left,TRUE,1207.8999999910593,image195,image195
2,2,7,D,memory-resp,#FFFFFF,#30b5ac,image269,45,image360,19,NA,left,left,TRUE,1284.7999999970198,image360,image269
2,2,7,D,memory-resp,#FFFFFF,#6d4dac,image102,700,image286,270,NA,left,left,TRUE,2464.2000000029802,image286,image102
2,2,7,D,retrieval,NA,NA,NA,NA,NA,NA,image128,NA,image128,TRUE,5092.5,image128,image49
2,2,7,D,retrieval,NA,NA,NA,NA,NA,NA,image195,NA,image195,TRUE,2524.5999999940395,image195,image49
2,2,7,D,retrieval,NA,NA,NA,NA,NA,NA,image286,NA,image286,TRUE,2905.7999999970198,image286,image49
2,2,7,D,retrieval,NA,NA,NA,NA,NA,NA,image360,NA,image360,TRUE,1312.9000000059605,image360,image49
2,2,8,D,memory-resp,#FFFFFF,#aa1d79,image35,999,image20,4.5,NA,left,left,TRUE,1954.7999999970198,image20,image35
