participant,blockID,trialID,condition,screenID,leftColor,rightColor,leftImage,leftSize,rightImage,rightSize,correctObject,correctResp,response,acc,rt,target,distractor
13,1,P1,C,processing,#FFFFFF,#708514,image405,10,image335,6.3,NA,left,right,FALSE,2679.699999988079,NA,NA
13,1,P1,C,processing,#FFFFFF,#4d4483,image405,10,image413,153,NA,right,right,TRUE,1157.300000011921,NA,NA
13,1,P1,C,processing,#FFFFFF,#923554,image405,10,image13,15,NA,right,right,TRUE,2009.5,NA,NA
13,1,P1,C,processing,#316857,#FFFFFF,image173,999,image405,10,NA,left,left,TRUE,1089.9000000059605,NA,NA
13,1,P2,C,processing,#FFFFFF,#488731,image405,10,image303,20,NA,right,right,TRUE,1322.699999988079,NA,NA
13,1,P2,C,processing,#82351c,#FFFFFF,image105,7.1,image405,10,NA,right,NULL,FALSE,NA,NA,NA
13,1,P2,C,processing,#7e4a96,#FFFFFF,image98,15,image405,10,NA,left,left,TRUE,1210.300000011921,NA,NA
13,1,P2,C,processing,#569d9f,#FFFFFF,image304,18,image405,10,NA,left,left,TRUE,1752.5999999940395,NA,NA
13,1,P3,C,processing,#33519e,#FFFFFF,image54,7,image405,10,NA,right,left,FALSE,906.3000000119209,NA,NA
13,1,P3,C,processing,#FFFFFF,#818240,image405,10,image161,8.7,NA,left,left,TRUE,1393.3999999761581,NA,NA
13,1,P3,C,processing,#FFFFFF,#9c2b71,image405,10,image45,13,NA,right,right,TRUE,970,NA,NA
13,1,P3,C,processing,#FFFFFF,#159d4e,image405,10,image143,72,NA,right,right,TRUE,1211.5999999940395,NA,NA
13,1,P4,C,processing,#FFFFFF,#71592d,image405,10,image229,25,NA,right,right,TRUE,1039.5,NA,NA
13,1,P4,C,processing,#FFFFFF,#7b2878,image405,10,image355,443.2,NA,right,right,TRUE,1028.199999988079,NA,NA
13,1,P4,C,processing,#30c322,#FFFFFF,image363,11.3,image405,10,NA,left,left,TRUE,1035.2000000178814,NA,NA
13,1,P4,C,processing,#215ba1,#FFFFFF,image379,15,image405,10,NA,left,left,TRUE,1354.4000000059605,NA,NA
13,1,P5,C,processing,#5db422,#FFFFFF,image247,999,image405,10,NA,left,left,TRUE,1260.0999999940395,NA,NA
13,1,P5,C,processing,#93100b,#FFFFFF,image205,999,image405,10,NA,left,left,TRUE,1143.300000011921,NA,NA
13,1,P5,C,processing,#FFFFFF,#379cbe,image405,10,image401,12,NA,right,right,TRUE,1707.800000011921,NA,NA
13,1,P5,C,processing,#5c2a8d,#FFFFFF,image5,27.1,image405,10,NA,left,left,TRUE,1681.699999988079,NA,NA
13,1,P6,C,processing,#337156,#FFFFFF,image212,8,image405,10,NA,right,left,FALSE,815.7000000178814,NA,NA
13,1,P6,C,processing,#FFFFFF,#877840,image405,10,image118,13.6,NA,right,left,FALSE,1441.5,NA,NA
13,1,P6,C,processing,#bf1d58,#FFFFFF,image236,11,image405,10,NA,left,right,FALSE,1491.4000000059605,NA,NA
13,1,P6,C,processing,#FFFFFF,#1f34d1,image405,10,image396,34,NA,right,right,TRUE,1008.5999999940395,NA,NA
13,1,P7,C,processing,#FFFFFF,#12c41e,image405,10,image343,16,NA,right,right,TRUE,1046.8999999761581,NA,NA
13,1,P7,C,processing,#FFFFFF,#16729c,image405,10,image226,70.2,NA,right,right,TRUE,1021.2000000178814,NA,NA
13,1,P7,C,processing,#FFFFFF,#c8621e,image405,10,image218,13.5,NA,right,right,TRUE,1327.300000011921,NA,NA
13,1,P7,C,processing,#b727be,#FFFFFF,image17,7,image405,10,NA,right,right,TRUE,1909.699999988079,NA,NA
13,1,P8,C,processing,#FFFFFF,#1e1cb0,image405,10,image375,8,NA,left,right,FALSE,1107.9000000059605,NA,NA
13,1,P8,C,processing,#FFFFFF,#702955,image405,10,image356,5.5,NA,left,left,TRUE,1515.800000011921,NA,NA
13,1,P8,C,processing,#31965d,#FFFFFF,image142,1,image405,10,NA,right,right,TRUE,1204,NA,NA
13,1,P8,C,processing,#9a9047,#FFFFFF,image49,20,image405,10,NA,left,left,TRUE,1298,NA,NA
13,1,P9,C,processing,#416f86,#FFFFFF,image223,170,image405,10,NA,left,left,TRUE,870.0999999940395,NA,NA
13,1,P9,C,processing,#448e33,#FFFFFF,image150,17.7,image405,10,NA,left,left,TRUE,1024.3999999761581,NA,NA
13,1,P9,C,processing,#c85c1e,#FFFFFF,image18,18,image405,10,NA,left,left,TRUE,1241.800000011921,NA,NA
13,1,P9,C,processing,#c113cd,#FFFFFF,image128,7.7,image405,10,NA,right,left,FALSE,1355.5,NA,NA
13,1,P10,C,processing,#FFFFFF,#543aa1,image405,10,image395,8.2,NA,left,left,TRUE,1307.2000000178814,NA,NA
13,1,P10,C,processing,#928911,#FFFFFF,image243,27.1,image405,10,NA,left,left,TRUE,1281.9000000059605,NA,NA
13,1,P10,C,processing,#FFFFFF,#3a8d68,image405,10,image240,19,NA,right,right,TRUE,1343.7000000178814,NA,NA
13,1,P10,C,processing,#c11a65,#FFFFFF,image27,6,image405,10,NA,right,right,TRUE,1157,NA,NA
13,1,P11,C,processing,#628726,#FFFFFF,image274,3.9,image405,10,NA,right,right,TRUE,1275.2000000178814,NA,NA
13,1,P11,C,processing,#FFFFFF,#421e8f,image405,10,image388,350,NA,right,right,TRUE,862.7999999821186,NA,NA
13,1,P11,C,processing,#FFFFFF,#943341,image405,10,image112,13,NA,right,right,TRUE,1407.2000000178814,NA,NA
13,1,P11,C,processing,#FFFFFF,#0a9471,image405,10,image198,6.8,NA,left,right,FALSE,1534.7000000178814,NA,NA
13,1,P12,C,processing,#1212a1,#FFFFFF,image297,7.9,image405,10,NA,right,right,TRUE,1291.5,NA,NA
13,1,P12,C,processing,#FFFFFF,#b81e66,image405,10,image378,13,NA,right,left,FALSE,1892.800000011921,NA,NA
13,1,P12,C,processing,#17a65c,#FFFFFF,image66,999,image405,10,NA,left,left,TRUE,1136.1000000238419,NA,NA
13,1,P12,C,processing,#FFFFFF,#97ac20,image405,10,image298,12.4,NA,right,right,TRUE,1235.699999988079,NA,NA
13,1,P13,C,processing,#ba703b,#FFFFFF,image321,40,image405,10,NA,left,left,TRUE,828.8000000119209,NA,NA
13,1,P13,C,processing,#FFFFFF,#0d4f9b,image405,10,image410,7,NA,left,right,FALSE,836.5999999940395,NA,NA
13,1,P13,C,processing,#FFFFFF,#2cb922,image405,10,image2,6.3,NA,left,right,FALSE,1642.0999999940395,NA,NA
13,1,P13,C,processing,#683768,#FFFFFF,image71,8,image405,10,NA,right,left,FALSE,1821.5,NA,NA
13,1,P14,C,processing,#FFFFFF,#325d71,image405,10,image264,18.6,NA,right,right,TRUE,1182.300000011921,NA,NA
13,1,P14,C,processing,#FFFFFF,#9312ba,image405,10,image250,34,NA,right,right,TRUE,885.9000000059605,NA,NA
13,1,P14,C,processing,#9c6c54,#FFFFFF,image106,30,image405,10,NA,left,left,TRUE,987.8000000119209,NA,NA
13,1,P14,C,processing,#0cc012,#FFFFFF,image83,140,image405,10,NA,left,left,TRUE,969.6999999880791,NA,NA
13,1,P15,C,processing,#cc9424,#FFFFFF,image129,17,image405,10,NA,left,left,TRUE,1490.7999999821186,NA,NA
13,1,P15,C,processing,#FFFFFF,#d41193,image405,10,image290,8.5,NA,left,right,FALSE,821,NA,NA
13,1,P15,C,processing,#2448d6,#FFFFFF,image50,8,image405,10,NA,right,right,TRUE,1549.7999999821186,NA,NA
13,1,P15,C,processing,#FFFFFF,#11b02c,image405,10,image180,14,NA,right,right,TRUE,1013.8000000119209,NA,NA
13,1,P16,C,processing,#FFFFFF,#4e1a89,image405,10,image404,7.5,NA,left,right,FALSE,1525.0999999940395,NA,NA
13,1,P16,C,processing,#684137,#FFFFFF,image77,120,image405,10,NA,left,left,TRUE,1101.5,NA,NA
13,1,P16,C,processing,#6dc828,#FFFFFF,image216,500,image405,10,NA,left,left,TRUE,941.5999999940395,NA,NA
13,1,P16,C,processing,#18d8d8,#FFFFFF,image292,6.8,image405,10,NA,right,left,FALSE,2082.9000000059605,NA,NA
13,1,P17,C,processing,#3f637d,#FFFFFF,image230,999,image405,10,NA,left,left,TRUE,1076.800000011921,NA,NA
13,1,P17,C,processing,#b3843d,#FFFFFF,image327,6.3,image405,10,NA,right,right,TRUE,1167.699999988079,NA,NA
13,1,P17,C,processing,#388a4d,#FFFFFF,image368,18.5,image405,10,NA,left,left,TRUE,1266.199999988079,NA,NA
13,1,P17,C,processing,#FFFFFF,#ca1299,image405,10,image360,19,NA,right,right,TRUE,1235.5999999940395,NA,NA
13,1,P18,C,processing,#6a8221,#FFFFFF,image296,7,image405,10,NA,right,left,FALSE,1728.5,NA,NA
13,1,P18,C,processing,#412772,#FFFFFF,image22,9.1,image405,10,NA,right,left,FALSE,1260.9000000059605,NA,NA
13,1,P18,C,processing,#FFFFFF,#7c313e,image405,10,image237,8.1,NA,left,right,FALSE,1441.800000011921,NA,NA
13,1,P18,C,processing,#FFFFFF,#298971,image405,10,image24,80,NA,right,right,TRUE,1469.9000000059605,NA,NA
13,1,P19,C,processing,#FFFFFF,#7ea54a,image405,10,image140,2,NA,left,left,TRUE,1228.7000000178814,NA,NA
13,1,P19,C,processing,#FFFFFF,#11ac88,image405,10,image113,210,NA,right,right,TRUE,1004.7999999821186,NA,NA
13,1,P19,C,processing,#5f2ea3,#FFFFFF,image139,9.6,image405,10,NA,right,right,TRUE,1334.699999988079,NA,NA
13,1,P19,C,processing,#FFFFFF,#9b505f,image405,10,image172,8,NA,left,right,FALSE,1488.1000000238419,NA,NA
13,1,P20,C,processing,#424190,#FFFFFF,image213,0.7,image405,10,NA,right,right,TRUE,1172.7999999821186,NA,NA
13,1,P20,C,processing,#772837,#FFFFFF,image126,11,image405,10,NA,left,left,TRUE,1069.6000000238419,NA,NA
13,1,P20,C,processing,#FFFFFF,#1ba768,image405,10,image329,8,NA,left,left,TRUE,1291.699999988079,NA,NA
13,1,P20,C,processing,#FFFFFF,#96aa13,image405,10,image223,170,NA,right,right,TRUE,922.4000000059605,NA,NA
13,1,P21,C,processing,#74253d,#FFFFFF,image89,35,image405,10,NA,left,left,TRUE,995.3000000119209,NA,NA
13,1,P21,C,processing,#FFFFFF,#5b28af,image405,10,image141,30,NA,right,right,TRUE,910,NA,NA
13,1,P21,C,processing,#FFFFFF,#0bc187,image405,10,image350,3,NA,left,right,FALSE,1635.199999988079,NA,NA
13,1,P21,C,processing,#799a2d,#FFFFFF,image337,12.3,image405,10,NA,left,left,TRUE,1640.2000000178814,NA,NA
13,1,P22,C,processing,#17b030,#FFFFFF,image62,7.5,image405,10,NA,right,right,TRUE,1366.6000000238419,NA,NA
13,1,P22,C,processing,#2a43c0,#FFFFFF,image76,5.5,image405,10,NA,right,left,FALSE,1569.800000011921,NA,NA
13,1,P22,C,processing,#FFFFFF,#b5880d,image405,10,image19,8,NA,left,right,FALSE,1256.6000000238419,NA,NA
13,1,P22,C,processing,#ca219a,#FFFFFF,image245,10.5,image405,10,NA,left,left,TRUE,1081.9000000059605,NA,NA
13,1,P23,C,processing,#FFFFFF,#4c1494,image405,10,image163,8,NA,left,right,FALSE,770.0999999940395,NA,NA
13,1,P23,C,processing,#0e907c,#FFFFFF,image54,7,image405,10,NA,right,left,FALSE,1048.199999988079,NA,NA
13,1,P23,C,processing,#FFFFFF,#8db040,image405,10,image188,5,NA,left,left,TRUE,1244.199999988079,NA,NA
13,1,P23,C,processing,#891f2a,#FFFFFF,image189,400,image405,10,NA,left,left,TRUE,912.9000000059605,NA,NA
13,1,P24,C,processing,#FFFFFF,#85732e,image405,10,image98,15,NA,right,right,TRUE,1226.9000000059605,NA,NA
13,1,P24,C,processing,#FFFFFF,#af189b,image405,10,image399,9,NA,left,right,FALSE,895.0999999940395,NA,NA
13,1,P24,C,processing,#FFFFFF,#1b4d93,image405,10,image45,13,NA,right,right,TRUE,776.2999999821186,NA,NA
13,1,P24,C,processing,#FFFFFF,#3db862,image405,10,image110,8,NA,left,left,TRUE,1413,NA,NA
13,1,P25,C,processing,#FFFFFF,#27b047,image405,10,image99,16.5,NA,right,right,TRUE,893.6999999880791,NA,NA
13,1,P25,C,processing,#FFFFFF,#a07718,image405,10,image328,40,NA,right,right,TRUE,1143.5999999940395,NA,NA
13,1,P25,C,processing,#c1159f,#FFFFFF,image333,13.2,image405,10,NA,left,left,TRUE,1262.699999988079,NA,NA
13,1,P25,C,processing,#1a63e0,#FFFFFF,image194,240,image405,10,NA,left,left,TRUE,864.0999999940395,NA,NA
13,1,1,C,memory-resp,#1eb323,#FFFFFF,image53,6.4,image405,10,NA,right,left,FALSE,2124,image53,image405
13,1,1,C,memory-resp,#FFFFFF,#ce0da4,image405,10,image7,3,NA,left,left,TRUE,2210.5,image7,image405
13,1,1,C,memory-resp,#FFFFFF,#3e67b1,image405,10,image128,7.7,NA,left,right,FALSE,1706.8999999761581,image128,image405
13,1,1,C,memory-resp,#da7116,#FFFFFF,image206,14,image405,10,NA,left,left,TRUE,1813.5,image206,image206
13,1,1,C,retrieval,NA,NA,NA,NA,NA,NA,image53,NA,image155,FALSE,5487.399999976158,image53,image405
13,1,1,C,retrieval,NA,NA,NA,NA,NA,NA,image128,NA,image128,TRUE,5464.5999999940395,image128,image405
13,1,1,C,retrieval,NA,NA,NA,NA,NA,NA,image7,NA,image7,TRUE,2491.7999999821186,image7,image405
13,1,1,C,retrieval,NA,NA,NA,NA,NA,NA,image206,NA,image206,TRUE,2679.899999976158,image206,image405
13,1,2,C,memory-resp,#FFFFFF,#606b38,image405,10,image360,19,NA,right,right,TRUE,1147.300000011921,image360,image360
13,1,2,C,memory-resp,#7e1b28,#FFFFFF,image233,6.2,image405,10,NA,right,left,FALSE,2475.0999999940395,image233,image405
13,1,2,C,memory-resp,#FFFFFF,#0d9ea5,image405,10,image280,20,NA,right,right,TRUE,1313.199999988079,image280,image280
13,1,2,C,memory-resp,#661aad,#FFFFFF,image149,29.3,image405,10,NA,left,left,TRUE,1971.7000000178814,image149,image149
13,1,2,C,retrieval,NA,NA,NA,NA,NA,NA,image280,NA,image233,FALSE,2727.300000011921,image280,image360
13,1,2,C,retrieval,NA,NA,NA,NA,NA,NA,image233,NA,image360,FALSE,3235,image233,image360
13,1,2,C,retrieval,NA,NA,NA,NA,NA,NA,image149,NA,image149,TRUE,2359.899999976158,image149,image360
13,1,2,C,retrieval,NA,NA,NA,NA,NA,NA,image360,NA,image280,FALSE,3463.800000011921,image360,image360
13,1,3,C,memory-resp,#808141,#FFFFFF,image400,42,image405,10,NA,left,left,TRUE,2057,image400,image400
13,1,3,C,memory-resp,#FFFFFF,#2b9777,image405,10,image229,25,NA,right,right,TRUE,1661.5999999940395,image229,image229
13,1,3,C,memory-resp,#FFFFFF,#95184e,image405,10,image373,17.5,NA,right,right,TRUE,1536.4000000059605,image373,image373
13,1,3,C,memory-resp,#3c17a1,#FFFFFF,image412,10.5,image405,10,NA,left,left,TRUE,1423,image412,image412
13,1,3,C,retrieval,NA,NA,NA,NA,NA,NA,image412,NA,image412,TRUE,1515.5999999940395,image412,image400
13,1,3,C,retrieval,NA,NA,NA,NA,NA,NA,image400,NA,image400,TRUE,6982,image400,image400
13,1,3,C,retrieval,NA,NA,NA,NA,NA,NA,image373,NA,image373,TRUE,3196.699999988079,image373,image400
13,1,3,C,retrieval,NA,NA,NA,NA,NA,NA,image229,NA,image229,TRUE,2230.2000000178814,image229,image400
13,1,4,C,memory-resp,#40b43c,#FFFFFF,image86,4.5,image405,10,NA,right,right,TRUE,2107.699999988079,image86,image405
13,1,4,C,memory-resp,#b55826,#FFFFFF,image358,16.2,image405,10,NA,left,left,TRUE,2526.5,image358,image358
13,1,4,C,memory-resp,#FFFFFF,#2d87c8,image405,10,image206,14,NA,right,right,TRUE,1546.9000000059605,image206,image206
13,1,4,C,memory-resp,#972c9b,#FFFFFF,image204,67.4,image405,10,NA,left,left,TRUE,1675.4000000059605,image204,image204
13,1,4,C,retrieval,NA,NA,NA,NA,NA,NA,image204,NA,image204,TRUE,1560.199999988079,image204,image405
13,1,4,C,retrieval,NA,NA,NA,NA,NA,NA,image358,NA,image206,FALSE,2616.699999988079,image358,image405
13,1,4,C,retrieval,NA,NA,NA,NA,NA,NA,image86,NA,image358,FALSE,5532.199999988079,image86,image405
13,1,4,C,retrieval,NA,NA,NA,NA,NA,NA,image206,NA,image206,TRUE,5080.700000017881,image206,image405
13,1,5,C,memory-resp,#FFFFFF,#753dae,image405,10,image14,1,NA,left,left,TRUE,2039.7999999821186,image14,image405
13,1,5,C,memory-resp,#2b8276,#FFFFFF,image115,9.4,image405,10,NA,right,right,TRUE,2030.5999999940395,image115,image405
13,1,5,C,memory-resp,#FFFFFF,#8fad25,image405,10,image30,19.4,NA,right,left,FALSE,2126.5999999940395,image30,image30
13,1,5,C,memory-resp,#FFFFFF,#b4183f,image405,10,image167,17.4,NA,right,NULL,FALSE,NA,image167,image167
13,1,5,C,retrieval,NA,NA,NA,NA,NA,NA,image30,NA,image30,TRUE,4685.699999988079,image30,image405
13,1,5,C,retrieval,NA,NA,NA,NA,NA,NA,image115,NA,image115,TRUE,3229,image115,image405
13,1,5,C,retrieval,NA,NA,NA,NA,NA,NA,image167,NA,image167,TRUE,962.7999999821186,image167,image405
13,1,5,C,retrieval,NA,NA,NA,NA,NA,NA,image14,NA,image14,TRUE,4560.4000000059605,image14,image405
13,1,6,C,memory-resp,#FFFFFF,#198a6a,image405,10,image146,95,NA,right,right,TRUE,1694,image146,image146
13,1,6,C,memory-resp,#53448d,#FFFFFF,image132,15,image405,10,NA,left,left,TRUE,1403.2000000178814,image132,image132
13,1,6,C,memory-resp,#838f3d,#FFFFFF,image428,9,image405,10,NA,right,left,FALSE,1706.699999988079,image428,image405
13,1,6,C,memory-resp,#FFFFFF,#ba2161,image405,10,image27,6,NA,left,left,TRUE,2779.699999988079,image27,image405
13,1,6,C,retrieval,NA,NA,NA,NA,NA,NA,image132,NA,image132,TRUE,4300.800000011921,image132,image146
13,1,6,C,retrieval,NA,NA,NA,NA,NA,NA,image27,NA,image27,TRUE,2816.800000011921,image27,image146
13,1,6,C,retrieval,NA,NA,NA,NA,NA,NA,image428,NA,image428,TRUE,1681.5999999940395,image428,image146
13,1,6,C,retrieval,NA,NA,NA,NA,NA,NA,image146,NA,image146,TRUE,3244.5999999940395,image146,image146
13,1,7,C,memory-resp,#794082,#FFFFFF,image125,5.1,image405,10,NA,right,right,TRUE,1659.2000000178814,image125,image405
13,1,7,C,memory-resp,#4a863c,#FFFFFF,image245,10.5,image405,10,NA,left,NULL,FALSE,NA,image245,image245
13,1,7,C,memory-resp,#FFFFFF,#216a91,image405,10,image295,7.1,NA,left,right,FALSE,1475,image295,image405
13,1,7,C,memory-resp,#FFFFFF,#984b1b,image405,10,image24,80,NA,right,right,TRUE,1396.5999999940395,image24,image24
13,1,7,C,retrieval,NA,NA,NA,NA,NA,NA,image24,NA,image24,TRUE,2251.2999999821186,image24,image405
13,1,7,C,retrieval,NA,NA,NA,NA,NA,NA,image295,NA,image295,TRUE,2914.399999976158,image295,image405
13,1,7,C,retrieval,NA,NA,NA,NA,NA,NA,image245,NA,image245,TRUE,1796.5999999940395,image245,image405
13,1,7,C,retrieval,NA,NA,NA,NA,NA,NA,image125,NA,image125,TRUE,2343.600000023842,image125,image405
13,1,8,C,memory-resp,#FFFFFF,#0dbf69,image405,10,image134,7,NA,left,right,FALSE,1327.0999999940395,image134,image405
13,1,8,C,memory-resp,#FFFFFF,#a7af18,image405,10,image349,5.8,NA,left,left,TRUE,1782.199999988079,image349,image405
13,1,8,C,memory-resp,#FFFFFF,#d02597,image405,10,image34,210,NA,right,right,TRUE,1443.1000000238419,image34,image34
13,1,8,C,memory-resp,#323d67,#FFFFFF,image6,20,image405,10,NA,left,right,FALSE,1435.0999999940395,image6,image6
13,1,8,C,retrieval,NA,NA,NA,NA,NA,NA,image6,NA,image6,TRUE,1699.0999999940395,image6,image405
13,1,8,C,retrieval,NA,NA,NA,NA,NA,NA,image134,NA,image349,FALSE,3128.100000023842,image134,image405
13,1,8,C,retrieval,NA,NA,NA,NA,NA,NA,image34,NA,image34,TRUE,1996.7999999821186,image34,image405
13,1,8,C,retrieval,NA,NA,NA,NA,NA,NA,image349,NA,image349,TRUE,2712.5999999940395,image349,image405
13,1,9,C,memory-resp,#FFFFFF,#59a725,image405,10,image158,150,NA,right,right,TRUE,1292.2000000178814,image158,image158
13,1,9,C,memory-resp,#27a7c4,#FFFFFF,image209,5.5,image405,10,NA,right,left,FALSE,1399.7999999821186,image209,image405
13,1,9,C,memory-resp,#553187,#FFFFFF,image325,12.6,image405,10,NA,left,left,TRUE,1542,image325,image325
13,1,9,C,memory-resp,#FFFFFF,#cf332a,image405,10,image200,0.5,NA,left,left,TRUE,1818.9000000059605,image200,image405
13,1,9,C,retrieval,NA,NA,NA,NA,NA,NA,image209,NA,image209,TRUE,5023,image209,image158
13,1,9,C,retrieval,NA,NA,NA,NA,NA,NA,image325,NA,image325,TRUE,2031.5999999940395,image325,image158
13,1,9,C,retrieval,NA,NA,NA,NA,NA,NA,image200,NA,image200,TRUE,1281,image200,image158
13,1,9,C,retrieval,NA,NA,NA,NA,NA,NA,image158,NA,image158,TRUE,5977.5,image158,image158
13,1,10,C,memory-resp,#FFFFFF,#1815cb,image405,10,image193,85,NA,right,right,TRUE,1876,image193,image193
13,1,10,C,memory-resp,#a30f5e,#FFFFFF,image100,9,image405,10,NA,right,right,TRUE,2816.0999999940395,image100,image405
13,1,10,C,memory-resp,#24c670,#FFFFFF,image123,4.8,image405,10,NA,right,right,TRUE,1575.5,image123,image405
13,1,10,C,memory-resp,#FFFFFF,#9e8742,image405,10,image302,11,NA,right,right,TRUE,2417.800000011921,image302,image302
13,1,10,C,retrieval,NA,NA,NA,NA,NA,NA,image302,NA,image302,TRUE,1441.8999999761581,image302,image193
13,1,10,C,retrieval,NA,NA,NA,NA,NA,NA,image193,NA,image23,FALSE,5730,image193,image193
13,1,10,C,retrieval,NA,NA,NA,NA,NA,NA,image100,NA,image76,FALSE,6408.5999999940395,image100,image193
13,1,10,C,retrieval,NA,NA,NA,NA,NA,NA,image123,NA,image302,FALSE,1563.7999999821186,image123,image193
13,1,11,C,memory-resp,#9c3590,#FFFFFF,image47,12,image405,10,NA,left,right,FALSE,2164.9000000059605,image47,image47
13,1,11,C,memory-resp,#FFFFFF,#485b8e,image405,10,image331,1.7,NA,left,left,TRUE,2051.300000011921,image331,image405
13,1,11,C,memory-resp,#FFFFFF,#976c2b,image405,10,image100,9,NA,left,left,TRUE,2345.4000000059605,image100,image405
13,1,11,C,memory-resp,#2e6b37,#FFFFFF,image158,150,image405,10,NA,left,left,TRUE,1690.5,image158,image158
13,1,11,C,retrieval,NA,NA,NA,NA,NA,NA,image331,NA,image331,TRUE,3064.0999999940395,image331,image47
13,1,11,C,retrieval,NA,NA,NA,NA,NA,NA,image158,NA,image158,TRUE,3049.800000011921,image158,image47
13,1,11,C,retrieval,NA,NA,NA,NA,NA,NA,image47,NA,image47,TRUE,4578.299999982119,image47,image47
13,1,11,C,retrieval,NA,NA,NA,NA,NA,NA,image100,NA,image100,TRUE,2646.5,image100,image47
13,1,12,C,memory-resp,#d37d27,#FFFFFF,image301,300,image405,10,NA,left,left,TRUE,1912,image301,image301
13,1,12,C,memory-resp,#FFFFFF,#ad14ad,image405,10,image245,10.5,NA,right,right,TRUE,1001,image245,image245
13,1,12,C,memory-resp,#FFFFFF,#19d21c,image405,10,image135,8.4,NA,left,right,FALSE,2710.4000000059605,image135,image405
13,1,12,C,memory-resp,#416986,#FFFFFF,image378,13,image405,10,NA,left,right,FALSE,1768.2999999821186,image378,image378
13,1,12,C,retrieval,NA,NA,NA,NA,NA,NA,image135,NA,image135,TRUE,5942.4000000059605,image135,image301
13,1,12,C,retrieval,NA,NA,NA,NA,NA,NA,image245,NA,image245,TRUE,2047.5,image245,image301
13,1,12,C,retrieval,NA,NA,NA,NA,NA,NA,image378,NA,image378,TRUE,1984.800000011921,image378,image301
13,1,12,C,retrieval,NA,NA,NA,NA,NA,NA,image301,NA,image301,TRUE,3631.699999988079,image301,image301
13,1,13,C,memory-resp,#783638,#FFFFFF,image58,12,image405,10,NA,left,left,TRUE,1957.4000000059605,image58,image58
13,1,13,C,memory-resp,#FFFFFF,#677f2e,image405,10,image417,9,NA,left,right,FALSE,1144.4000000059605,image417,image405
13,1,13,C,memory-resp,#FFFFFF,#398e8b,image405,10,image333,13.2,NA,right,right,TRUE,1556.0999999940395,image333,image333
13,1,13,C,memory-resp,#572da4,#FFFFFF,image154,16.2,image405,10,NA,left,left,TRUE,1425.699999988079,image154,image154
13,1,13,C,retrieval,NA,NA,NA,NA,NA,NA,image58,NA,image58,TRUE,2853.2999999821186,image58,image58
13,1,13,C,retrieval,NA,NA,NA,NA,NA,NA,image154,NA,image154,TRUE,3181,image154,image58
13,1,13,C,retrieval,NA,NA,NA,NA,NA,NA,image333,NA,image333,TRUE,2097.9000000059605,image333,image58
13,1,13,C,retrieval,NA,NA,NA,NA,NA,NA,image417,NA,image417,TRUE,2396.5999999940395,image417,image58
13,1,14,C,memory-resp,#FFFFFF,#44885c,image405,10,image9,36,NA,right,right,TRUE,1541.5,image9,image9
13,1,14,C,memory-resp,#FFFFFF,#404982,image405,10,image360,19,NA,right,right,TRUE,1049.7999999821186,image360,image360
13,1,14,C,memory-resp,#846a15,#FFFFFF,image156,6.5,image405,10,NA,right,left,FALSE,1561,image156,image405
13,1,14,C,memory-resp,#ae4794,#FFFFFF,image105,7.1,image405,10,NA,right,NULL,FALSE,NA,image105,image405
13,1,14,C,retrieval,NA,NA,NA,NA,NA,NA,image105,NA,image105,TRUE,1968.9000000059605,image105,image9
13,1,14,C,retrieval,NA,NA,NA,NA,NA,NA,image156,NA,image156,TRUE,3545.2000000178814,image156,image9
13,1,14,C,retrieval,NA,NA,NA,NA,NA,NA,image9,NA,image9,TRUE,3249.300000011921,image9,image9
13,1,14,C,retrieval,NA,NA,NA,NA,NA,NA,image360,NA,image360,TRUE,681.5,image360,image9
13,1,15,C,memory-resp,#FFFFFF,#2f9198,image405,10,image262,7.5,NA,left,left,TRUE,2030,image262,image405
13,1,15,C,memory-resp,#FFFFFF,#7e9f32,image405,10,image369,200,NA,right,right,TRUE,1271,image369,image369
13,1,15,C,memory-resp,#4b1eb3,#FFFFFF,image96,180,image405,10,NA,left,left,TRUE,1310.699999988079,image96,image96
13,1,15,C,memory-resp,#a03133,#FFFFFF,image381,12,image405,10,NA,left,left,TRUE,1187,image381,image381
13,1,15,C,retrieval,NA,NA,NA,NA,NA,NA,image262,NA,image262,TRUE,3626.699999988079,image262,image405
13,1,15,C,retrieval,NA,NA,NA,NA,NA,NA,image381,NA,image381,TRUE,4652.0999999940395,image381,image405
13,1,15,C,retrieval,NA,NA,NA,NA,NA,NA,image96,NA,image96,TRUE,2281.699999988079,image96,image405
13,1,15,C,retrieval,NA,NA,NA,NA,NA,NA,image369,NA,image369,TRUE,3029.5999999940395,image369,image405
13,2,P1,D,processing,#FFFFFF,#932f70,image344,4,image187,300,NA,right,right,TRUE,852.9000000059605,NA,NA
13,2,P1,D,processing,#2a7a42,#FFFFFF,image164,13.5,image357,4.3,NA,left,left,TRUE,1235.6000000238419,NA,NA
13,2,P1,D,processing,#FFFFFF,#816728,image319,34,image299,300,NA,right,left,FALSE,1629.5999999940395,NA,NA
13,2,P1,D,processing,#FFFFFF,#2548a7,image182,800,image165,6.6,NA,left,left,TRUE,1076.4000000059605,NA,NA
13,2,P2,D,processing,#FFFFFF,#7821ba,image239,6,image116,14.5,NA,right,right,TRUE,1251.800000011921,NA,NA
13,2,P2,D,processing,#22a080,#FFFFFF,image378,13,image191,35,NA,right,right,TRUE,1159.9000000059605,NA,NA
13,2,P2,D,processing,#FFFFFF,#99bd2e,image389,4.8,image16,999,NA,right,right,TRUE,1144.8999999761581,NA,NA
13,2,P2,D,processing,#FFFFFF,#80424f,image365,5,image351,450,NA,right,right,TRUE,1391.800000011921,NA,NA
13,2,P3,D,processing,#27b4b4,#FFFFFF,image27,6,image116,14.5,NA,right,right,TRUE,1267.300000011921,NA,NA
13,2,P3,D,processing,#FFFFFF,#7041aa,image4,7,image307,28,NA,right,right,TRUE,1177.300000011921,NA,NA
13,2,P3,D,processing,#FFFFFF,#b62711,image286,270,image72,3,NA,left,left,TRUE,1146.5,NA,NA
13,2,P3,D,processing,#73983e,#FFFFFF,image309,13.6,image191,35,NA,right,right,TRUE,1008.0999999940395,NA,NA
13,2,P4,D,processing,#363f63,#FFFFFF,image108,40,image346,950,NA,right,right,TRUE,777.5999999940395,NA,NA
13,2,P4,D,processing,#856d1e,#FFFFFF,image299,300,image370,58.5,NA,left,left,TRUE,1079.199999988079,NA,NA
13,2,P4,D,processing,#FFFFFF,#ac1180,image12,3,image315,1.5,NA,left,right,FALSE,1143.1000000238419,NA,NA
13,2,P4,D,processing,#188c29,#FFFFFF,image419,150,image43,18,NA,left,left,TRUE,1279.5,NA,NA
13,2,P5,D,processing,#a18e45,#FFFFFF,image413,153,image16,999,NA,right,right,TRUE,897.8000000119209,NA,NA
13,2,P5,D,processing,#7f3476,#FFFFFF,image136,33,image239,6,NA,left,left,TRUE,973,NA,NA
13,2,P5,D,processing,#19ae39,#FFFFFF,image335,6.3,image96,180,NA,right,left,FALSE,1477.199999988079,NA,NA
13,2,P5,D,processing,#FFFFFF,#192e9a,image19,8,image21,20,NA,right,right,TRUE,1028.5,NA,NA
13,2,P6,D,processing,#FFFFFF,#4b8b68,image240,19,image120,450,NA,right,right,TRUE,882.2999999821186,NA,NA
13,2,P6,D,processing,#FFFFFF,#a51861,image16,999,image32,105,NA,left,right,FALSE,1309.800000011921,NA,NA
13,2,P6,D,processing,#3a3e88,#FFFFFF,image390,36.8,image20,4.5,NA,left,left,TRUE,1350.3999999761581,NA,NA
13,2,P6,D,processing,#79662a,#FFFFFF,image395,8.2,image384,100,NA,right,right,TRUE,1377.699999988079,NA,NA
13,2,P7,D,processing,#FFFFFF,#3270a9,image65,450,image64,960,NA,right,right,TRUE,997,NA,NA
13,2,P7,D,processing,#cf6120,#FFFFFF,image92,4,image232,180,NA,right,right,TRUE,980.5999999940395,NA,NA
13,2,P7,D,processing,#c71bd0,#FFFFFF,image96,180,image272,35,NA,left,left,TRUE,1572.800000011921,NA,NA
13,2,P7,D,processing,#FFFFFF,#16bb16,image39,16,image143,72,NA,right,left,FALSE,1611,NA,NA
13,2,P8,D,processing,#8b301d,#FFFFFF,image370,58.5,image20,4.5,NA,left,left,TRUE,1546.0999999940395,NA,NA
13,2,P8,D,processing,#4cae0f,#FFFFFF,image266,1.5,image43,18,NA,right,left,FALSE,1550.300000011921,NA,NA
13,2,P8,D,processing,#692d7b,#FFFFFF,image306,41.4,image12,3,NA,left,left,TRUE,1261.2000000178814,NA,NA
13,2,P8,D,processing,#4e95a2,#FFFFFF,image160,0.7,image96,180,NA,right,right,TRUE,1543.2999999821186,NA,NA
13,2,P9,D,processing,#FFFFFF,#ad143d,image338,12,image159,120,NA,right,right,TRUE,965.2000000178814,NA,NA
13,2,P9,D,processing,#33c7bd,#FFFFFF,image357,4.3,image25,40,NA,right,right,TRUE,1609.5999999940395,NA,NA
13,2,P9,D,processing,#481e8f,#FFFFFF,image362,24.2,image165,6.6,NA,left,left,TRUE,1518.8999999761581,NA,NA
13,2,P9,D,processing,#FFFFFF,#72c20f,image195,160,image234,24,NA,left,left,TRUE,1231.4000000059605,NA,NA
13,2,P10,D,processing,#FFFFFF,#1e1881,image396,34,image10,10,NA,left,right,FALSE,1613.800000011921,NA,NA
13,2,P10,D,processing,#FFFFFF,#287b5d,image390,36.8,image178,999,NA,right,right,TRUE,979.5999999940395,NA,NA
13,2,P10,D,processing,#FFFFFF,#c2386b,image416,400,image1,7,NA,left,left,TRUE,1063.9000000059605,NA,NA
13,2,P10,D,processing,#a3ac3e,#FFFFFF,image285,240,image173,999,NA,right,right,TRUE,844.4000000059605,NA,NA
13,2,P11,D,processing,#4ba72a,#FFFFFF,image280,20,image22,9.1,NA,left,left,TRUE,1132.199999988079,NA,NA
13,2,P11,D,processing,#6a1cca,#FFFFFF,image269,45,image415,20,NA,left,right,FALSE,1844.7000000178814,NA,NA
13,2,P11,D,processing,#FFFFFF,#0a97a4,image154,16.2,image123,4.8,NA,left,left,TRUE,907.4000000059605,NA,NA
13,2,P11,D,processing,#FFFFFF,#955e4b,image135,8.4,image94,3.4,NA,left,left,TRUE,2000,NA,NA
13,2,P12,D,processing,#5fa04b,#FFFFFF,image164,13.5,image130,250,NA,right,right,TRUE,1260.8999999761581,NA,NA
13,2,P12,D,processing,#FFFFFF,#813233,image346,950,image83,140,NA,left,left,TRUE,1461.5,NA,NA
13,2,P12,D,processing,#FFFFFF,#1e8aae,image21,20,image239,6,NA,left,left,TRUE,1646.8999999761581,NA,NA
13,2,P12,D,processing,#FFFFFF,#613190,image426,48,image174,999,NA,right,right,TRUE,1145.5,NA,NA
13,2,P13,D,processing,#FFFFFF,#b41e13,image148,30,image59,0.8,NA,left,left,TRUE,1477.5,NA,NA
13,2,P13,D,processing,#FFFFFF,#9546af,image278,21.6,image93,1.5,NA,left,right,FALSE,1210.199999988079,NA,NA
13,2,P13,D,processing,#216a82,#FFFFFF,image328,40,image18,18,NA,left,left,TRUE,1412,NA,NA
13,2,P13,D,processing,#25891a,#FFFFFF,image12,3,image304,18,NA,right,right,TRUE,1144.0999999940395,NA,NA
13,2,P14,D,processing,#882b3a,#FFFFFF,image57,2.5,image265,9.6,NA,right,right,TRUE,1478.2000000178814,NA,NA
13,2,P14,D,processing,#65a63f,#FFFFFF,image329,8,image274,3.9,NA,left,right,FALSE,1232.9000000059605,NA,NA
13,2,P14,D,processing,#FFFFFF,#23bea4,image159,120,image63,800,NA,right,right,TRUE,1728.5,NA,NA
13,2,P14,D,processing,#FFFFFF,#643e84,image187,300,image55,75,NA,left,left,TRUE,1228.800000011921,NA,NA
13,2,P15,D,processing,#FFFFFF,#9b5083,image99,16.5,image426,48,NA,right,right,TRUE,1012.2000000178814,NA,NA
13,2,P15,D,processing,#baa621,#FFFFFF,image29,30,image393,204,NA,right,left,FALSE,1033.3999999761581,NA,NA
13,2,P15,D,processing,#089136,#FFFFFF,image279,34.7,image260,999,NA,right,left,FALSE,1516.5,NA,NA
13,2,P15,D,processing,#FFFFFF,#232e86,image1,7,image288,34,NA,right,right,TRUE,1558.5,NA,NA
13,2,P16,D,processing,#FFFFFF,#65af2c,image393,204,image199,7,NA,left,left,TRUE,1129,NA,NA
13,2,P16,D,processing,#4f0e8b,#FFFFFF,image133,300,image35,999,NA,right,right,TRUE,1197.5,NA,NA
13,2,P16,D,processing,#FFFFFF,#9d1515,image418,25,image197,999,NA,right,right,TRUE,1313.300000011921,NA,NA
13,2,P16,D,processing,#15adcb,#FFFFFF,image254,140,image15,12,NA,left,left,TRUE,1338,NA,NA
13,2,P17,D,processing,#FFFFFF,#961dbf,image320,170,image412,10.5,NA,left,right,FALSE,1431.9000000059605,NA,NA
13,2,P17,D,processing,#FFFFFF,#459523,image263,5.4,image400,42,NA,right,right,TRUE,1561.5,NA,NA
13,2,P17,D,processing,#FFFFFF,#4b79aa,image173,999,image28,10,NA,left,left,TRUE,962,NA,NA
13,2,P17,D,processing,#FFFFFF,#7c4f22,image240,19,image161,8.7,NA,left,left,TRUE,1612.7999999821186,NA,NA
13,2,P18,D,processing,#733b3a,#FFFFFF,image304,18,image331,1.7,NA,left,left,TRUE,1643.4000000059605,NA,NA
13,2,P18,D,processing,#FFFFFF,#1bd0c7,image193,85,image106,30,NA,left,left,TRUE,993.0999999940395,NA,NA
13,2,P18,D,processing,#FFFFFF,#5dab21,image392,160,image364,4.2,NA,left,left,TRUE,1697.9000000059605,NA,NA
13,2,P18,D,processing,#510eaa,#FFFFFF,image20,4.5,image413,153,NA,right,right,TRUE,1031.800000011921,NA,NA
13,2,P19,D,processing,#925d3f,#FFFFFF,image409,28,image186,999,NA,right,right,TRUE,1366.2999999821186,NA,NA
13,2,P19,D,processing,#3fae32,#FFFFFF,image179,15.5,image17,7,NA,left,left,TRUE,1910.8999999761581,NA,NA
13,2,P19,D,processing,#FFFFFF,#21abc0,image346,950,image393,204,NA,left,left,TRUE,1376.5,NA,NA
13,2,P19,D,processing,#FFFFFF,#613678,image328,40,image377,8.7,NA,left,left,TRUE,1667.5999999940395,NA,NA
13,2,P20,D,processing,#ab2695,#FFFFFF,image106,30,image258,7,NA,left,right,FALSE,1628.5,NA,NA
13,2,P20,D,processing,#FFFFFF,#de6e12,image339,20,image329,8,NA,left,left,TRUE,1061.300000011921,NA,NA
13,2,P20,D,processing,#2d4f76,#FFFFFF,image174,999,image193,85,NA,left,left,TRUE,1678.199999988079,NA,NA
13,2,P20,D,processing,#2d763a,#FFFFFF,image211,21.3,image197,999,NA,right,right,TRUE,1229.5999999940395,NA,NA
13,2,P21,D,processing,#FFFFFF,#99279b,image50,8,image304,18,NA,right,right,TRUE,1044.3999999761581,NA,NA
13,2,P21,D,processing,#826517,#FFFFFF,image82,95,image53,6.4,NA,left,left,TRUE,1359.199999988079,NA,NA
13,2,P21,D,processing,#FFFFFF,#10ea43,image124,170,image166,30,NA,left,left,TRUE,882,NA,NA
13,2,P21,D,processing,#FFFFFF,#234290,image272,35,image181,999,NA,right,right,TRUE,1242.800000011921,NA,NA
13,2,P22,D,processing,#FFFFFF,#c95813,image353,5,image380,30.8,NA,right,right,TRUE,1589.2999999821186,NA,NA
13,2,P22,D,processing,#34ea10,#FFFFFF,image66,999,image393,204,NA,left,right,FALSE,825.0999999940395,NA,NA
13,2,P22,D,processing,#4191b9,#FFFFFF,image181,999,image419,150,NA,left,left,TRUE,1451.5,NA,NA
13,2,P22,D,processing,#9c1c8b,#FFFFFF,image274,3.9,image78,999,NA,right,right,TRUE,1326.699999988079,NA,NA
13,2,P23,D,processing,#FFFFFF,#4f8a92,image398,150,image99,16.5,NA,left,right,FALSE,1377,NA,NA
13,2,P23,D,processing,#4e8523,#FFFFFF,image258,7,image214,80,NA,right,right,TRUE,1374,NA,NA
13,2,P23,D,processing,#FFFFFF,#943b2e,image429,40,image195,160,NA,right,right,TRUE,1244.699999988079,NA,NA
13,2,P23,D,processing,#FFFFFF,#63239f,image274,3.9,image399,9,NA,right,right,TRUE,1327.5,NA,NA
13,2,P24,D,processing,#8f8832,#FFFFFF,image409,28,image261,9.5,NA,left,left,TRUE,1224.5,NA,NA
13,2,P24,D,processing,#97357e,#FFFFFF,image217,8.5,image143,72,NA,right,left,FALSE,1712.300000011921,NA,NA
13,2,P24,D,processing,#FFFFFF,#0fa32f,image255,4.5,image360,19,NA,right,right,TRUE,1375.699999988079,NA,NA
13,2,P24,D,processing,#36496d,#FFFFFF,image194,240,image408,7,NA,left,left,TRUE,1580.5,NA,NA
13,2,P25,D,processing,#2ec2a9,#FFFFFF,image279,34.7,image326,1.9,NA,left,left,TRUE,1213,NA,NA
13,2,P25,D,processing,#FFFFFF,#9db22a,image398,150,image341,5,NA,left,left,TRUE,1677.699999988079,NA,NA
13,2,P25,D,processing,#a30a4f,#FFFFFF,image288,34,image416,400,NA,right,right,TRUE,1360.800000011921,NA,NA
13,2,P25,D,processing,#49427b,#FFFFFF,image12,3,image173,999,NA,right,right,TRUE,1051.9000000059605,NA,NA
13,2,1,D,memory-resp,#FFFFFF,#2d4dae,image364,4.2,image342,100,NA,right,NULL,FALSE,NA,image342,image342
13,2,1,D,memory-resp,#FFFFFF,#33703d,image302,11,image334,25,NA,right,right,TRUE,1930.4000000059605,image334,image334
13,2,1,D,memory-resp,#FFFFFF,#806f23,image10,10,image423,5,NA,left,right,FALSE,2277.9000000059605,image423,image10
13,2,1,D,memory-resp,#a44c90,#FFFFFF,image306,41.4,image313,10,NA,left,left,TRUE,2214.5,image306,image306
13,2,1,D,retrieval,NA,NA,NA,NA,NA,NA,image342,NA,image342,TRUE,5128.699999988079,image342,image342
13,2,1,D,retrieval,NA,NA,NA,NA,NA,NA,image306,NA,image306,TRUE,3196.7999999821186,image306,image342
13,2,1,D,retrieval,NA,NA,NA,NA,NA,NA,image334,NA,image334,TRUE,5379.5,image334,image342
13,2,1,D,retrieval,NA,NA,NA,NA,NA,NA,image423,NA,image334,FALSE,1299.699999988079,image423,image342
13,2,2,D,memory-resp,#578028,#FFFFFF,image303,20,image324,1.4,NA,left,left,TRUE,1192.800000011921,image303,image303
13,2,2,D,memory-resp,#FFFFFF,#8a0fb3,image319,34,image258,7,NA,left,right,FALSE,1249.4000000059605,image258,image319
13,2,2,D,memory-resp,#24c6bb,#FFFFFF,image25,40,image65,450,NA,right,left,FALSE,1381.4000000059605,image25,image65
13,2,2,D,memory-resp,#FFFFFF,#75423e,image132,15,image328,40,NA,right,right,TRUE,1742,image328,image328
13,2,2,D,retrieval,NA,NA,NA,NA,NA,NA,image303,NA,image303,TRUE,3996.300000011921,image303,image303
13,2,2,D,retrieval,NA,NA,NA,NA,NA,NA,image258,NA,image258,TRUE,2215.199999988079,image258,image303
13,2,2,D,retrieval,NA,NA,NA,NA,NA,NA,image25,NA,image328,FALSE,1945.5,image25,image303
13,2,2,D,retrieval,NA,NA,NA,NA,NA,NA,image328,NA,image328,TRUE,1013.5,image328,image303
13,2,3,D,memory-resp,#79583e,#FFFFFF,image274,3.9,image136,33,NA,right,left,FALSE,925.9000000059605,image274,image136
13,2,3,D,memory-resp,#477c2d,#FFFFFF,image119,0.4,image101,180,NA,right,right,TRUE,1928.699999988079,image119,image101
13,2,3,D,memory-resp,#FFFFFF,#94519a,image157,95,image9,36,NA,left,right,FALSE,1627,image9,image157
13,2,3,D,memory-resp,#23a4be,#FFFFFF,image27,6,image220,0.5,NA,left,left,TRUE,1582,image27,image27
13,2,3,D,retrieval,NA,NA,NA,NA,NA,NA,image119,NA,image119,TRUE,1997.199999988079,image119,image136
13,2,3,D,retrieval,NA,NA,NA,NA,NA,NA,image9,NA,image420,FALSE,5288.5999999940395,image9,image136
13,2,3,D,retrieval,NA,NA,NA,NA,NA,NA,image27,NA,image9,FALSE,2507.2999999821186,image27,image136
13,2,3,D,retrieval,NA,NA,NA,NA,NA,NA,image274,NA,image9,FALSE,761,image274,image136
13,2,4,D,memory-resp,#FFFFFF,#0b8e25,image323,25,image151,10,NA,left,right,FALSE,1575.5,image151,image323
13,2,4,D,memory-resp,#FFFFFF,#a24484,image72,3,image381,12,NA,right,right,TRUE,1445.5999999940395,image381,image381
13,2,4,D,memory-resp,#FFFFFF,#1a34a8,image255,4.5,image25,40,NA,right,right,TRUE,2353.0999999940395,image25,image25
13,2,4,D,memory-resp,#FFFFFF,#907b37,image59,0.8,image431,14.8,NA,right,right,TRUE,1844.9000000059605,image431,image431
13,2,4,D,retrieval,NA,NA,NA,NA,NA,NA,image381,NA,image381,TRUE,4764.699999988079,image381,image323
13,2,4,D,retrieval,NA,NA,NA,NA,NA,NA,image151,NA,image151,TRUE,6011.899999976158,image151,image323
13,2,4,D,retrieval,NA,NA,NA,NA,NA,NA,image431,NA,image431,TRUE,2576.199999988079,image431,image323
13,2,4,D,retrieval,NA,NA,NA,NA,NA,NA,image25,NA,image25,TRUE,2826.4000000059605,image25,image323
13,2,5,D,memory-resp,#b524b7,#FFFFFF,image329,8,image305,0.2,NA,left,left,TRUE,1685.7999999821186,image329,image329
13,2,5,D,memory-resp,#82522b,#FFFFFF,image330,180,image173,999,NA,right,right,TRUE,1759.699999988079,image330,image173
13,2,5,D,memory-resp,#168c12,#FFFFFF,image261,9.5,image301,300,NA,right,right,TRUE,1401.300000011921,image261,image301
13,2,5,D,memory-resp,#3a659c,#FFFFFF,image160,0.7,image269,45,NA,right,right,TRUE,1343.8999999761581,image160,image269
13,2,5,D,retrieval,NA,NA,NA,NA,NA,NA,image160,NA,image305,FALSE,1073.300000011921,image160,image329
13,2,5,D,retrieval,NA,NA,NA,NA,NA,NA,image329,NA,image329,TRUE,4328.0999999940395,image329,image329
13,2,5,D,retrieval,NA,NA,NA,NA,NA,NA,image330,NA,image330,TRUE,2311.2999999821186,image330,image329
13,2,5,D,retrieval,NA,NA,NA,NA,NA,NA,image261,NA,image261,TRUE,1916.0999999940395,image261,image329
13,2,6,D,memory-resp,#79b611,#FFFFFF,image37,4.2,image103,999,NA,right,right,TRUE,1726.5,image37,image103
13,2,6,D,memory-resp,#FFFFFF,#36a6a2,image156,6.5,image194,240,NA,right,right,TRUE,970.8999999761581,image194,image194
13,2,6,D,memory-resp,#6a3f39,#FFFFFF,image312,20.5,image370,58.5,NA,right,left,FALSE,1393.4000000059605,image312,image370
13,2,6,D,memory-resp,#8339a7,#FFFFFF,image233,6.2,image173,999,NA,right,right,TRUE,1073.300000011921,image233,image173
13,2,6,D,retrieval,NA,NA,NA,NA,NA,NA,image37,NA,image37,TRUE,4009.4000000059605,image37,image103
13,2,6,D,retrieval,NA,NA,NA,NA,NA,NA,image233,NA,image233,TRUE,4109.399999976158,image233,image103
13,2,6,D,retrieval,NA,NA,NA,NA,NA,NA,image312,NA,image312,TRUE,1685.0999999940395,image312,image103
13,2,6,D,retrieval,NA,NA,NA,NA,NA,NA,image194,NA,image194,TRUE,977.8000000119209,image194,image103
13,2,7,D,memory-resp,#FFFFFF,#2a8330,image158,150,image428,9,NA,left,right,FALSE,1641.8999999761581,image428,image158
13,2,7,D,memory-resp,#FFFFFF,#a8831f,image94,3.4,image63,800,NA,right,right,TRUE,1098.0999999940395,image63,image63
13,2,7,D,memory-resp,#941494,#FFFFFF,image45,13,image130,250,NA,right,right,TRUE,2413,image45,image130
13,2,7,D,memory-resp,#266897,#FFFFFF,image378,13,image284,200,NA,right,right,TRUE,1390.5999999940395,image378,image284
13,2,7,D,retrieval,NA,NA,NA,NA,NA,NA,image63,NA,image63,TRUE,3587.4000000059605,image63,image158
13,2,7,D,retrieval,NA,NA,NA,NA,NA,NA,image45,NA,image45,TRUE,2245.800000011921,image45,image158
13,2,7,D,retrieval,NA,NA,NA,NA,NA,NA,image378,NA,image284,FALSE,4582.699999988079,image378,image158
13,2,7,D,retrieval,NA,NA,NA,NA,NA,NA,image428,NA,image428,TRUE,1762.9000000059605,image428,image158
13,2,8,D,memory-resp,#FFFFFF,#18c95e,image382,23.2,image64,960,NA,right,NULL,FALSE,NA,image64,image64
13,2,8,D,memory-resp,#FFFFFF,#174cb5,image93,1.5,image357,4.3,NA,right,right,TRUE,1833.5999999940395,image357,image357
13,2,8,D,memory-resp,#67325b,#FFFFFF,image336,7,image88,3.5,NA,left,right,FALSE,2280.9000000059605,image336,image336
13,2,8,D,memory-resp,#FFFFFF,#7d741c,image150,17.7,image217,8.5,NA,left,left,TRUE,1842.4000000059605,image217,image150
13,2,8,D,retrieval,NA,NA,NA,NA,NA,NA,image357,NA,image357,TRUE,3631.699999988079,image357,image64
13,2,8,D,retrieval,NA,NA,NA,NA,NA,NA,image64,NA,image64,TRUE,3708.9000000059605,image64,image64
13,2,8,D,retrieval,NA,NA,NA,NA,NA,NA,image336,NA,image336,TRUE,3303,image336,image64
13,2,8,D,retrieval,NA,NA,NA,NA,NA,NA,image217,NA,image150,FALSE,547.4000000059605,image217,image64
13,2,9,D,memory-resp,#FFFFFF,#4530a1,image226,70.2,image330,180,NA,right,right,TRUE,1439.5999999940395,image330,image330
13,2,9,D,memory-resp,#23b394,#FFFFFF,image280,20,image351,450,NA,right,left,FALSE,1826,image280,image351
13,2,9,D,memory-resp,#FFFFFF,#98a744,image18,18,image197,999,NA,right,right,TRUE,1498.9000000059605,image197,image197
13,2,9,D,memory-resp,#FFFFFF,#992455,image111,8,image166,30,NA,right,right,TRUE,2259.300000011921,image166,image166
13,2,9,D,retrieval,NA,NA,NA,NA,NA,NA,image280,NA,image197,FALSE,2965.5,image280,image330
13,2,9,D,retrieval,NA,NA,NA,NA,NA,NA,image197,NA,image197,TRUE,4051.0999999940395,image197,image330
13,2,9,D,retrieval,NA,NA,NA,NA,NA,NA,image166,NA,image226,FALSE,5079.4000000059605,image166,image330
13,2,9,D,retrieval,NA,NA,NA,NA,NA,NA,image330,NA,image330,TRUE,2112.5999999940395,image330,image330
13,2,10,D,memory-resp,#1820bf,#FFFFFF,image318,9.5,image370,58.5,NA,right,right,TRUE,1641.800000011921,image318,image370
13,2,10,D,memory-resp,#991547,#FFFFFF,image192,20,image425,700,NA,right,right,TRUE,1252.4000000059605,image192,image425
13,2,10,D,memory-resp,#FFFFFF,#3e7a63,image418,25,image100,9,NA,left,left,TRUE,2199.399999976158,image100,image418
13,2,10,D,memory-resp,#9ba018,#FFFFFF,image123,4.8,image99,16.5,NA,right,right,TRUE,1722.300000011921,image123,image99
13,2,10,D,retrieval,NA,NA,NA,NA,NA,NA,image123,NA,image123,TRUE,1854.6000000238419,image123,image370
13,2,10,D,retrieval,NA,NA,NA,NA,NA,NA,image192,NA,image192,TRUE,3414.0999999940395,image192,image370
13,2,10,D,retrieval,NA,NA,NA,NA,NA,NA,image318,NA,image318,TRUE,2694.300000011921,image318,image370
13,2,10,D,retrieval,NA,NA,NA,NA,NA,NA,image100,NA,image156,FALSE,1077.3999999761581,image100,image370
13,2,11,D,memory-resp,#a8a31a,#FFFFFF,image294,2.5,image393,204,NA,right,right,TRUE,1391.800000011921,image294,image393
13,2,11,D,memory-resp,#FFFFFF,#46a45b,image250,34,image341,5,NA,left,left,TRUE,2250.699999988079,image341,image250
13,2,11,D,memory-resp,#c50d6c,#FFFFFF,image299,300,image109,8,NA,left,left,TRUE,2323.399999976158,image299,image299
13,2,11,D,memory-resp,#132d8b,#FFFFFF,image19,8,image186,999,NA,right,right,TRUE,1581.0999999940395,image19,image186
13,2,11,D,retrieval,NA,NA,NA,NA,NA,NA,image19,NA,image19,TRUE,2115.899999976158,image19,image393
13,2,11,D,retrieval,NA,NA,NA,NA,NA,NA,image294,NA,image294,TRUE,3801.7999999821186,image294,image393
13,2,11,D,retrieval,NA,NA,NA,NA,NA,NA,image299,NA,image299,TRUE,2258.9000000059605,image299,image393
13,2,11,D,retrieval,NA,NA,NA,NA,NA,NA,image341,NA,image341,TRUE,2196.300000011921,image341,image393
13,2,12,D,memory-resp,#FFFFFF,#8847ae,image78,999,image285,240,NA,left,left,TRUE,1861.0999999940395,image285,image78
13,2,12,D,memory-resp,#229191,#FFFFFF,image195,160,image178,999,NA,right,right,TRUE,1631.800000011921,image195,image178
13,2,12,D,memory-resp,#FFFFFF,#426d2c,image382,23.2,image94,3.4,NA,left,left,TRUE,1904.2999999821186,image94,image382
13,2,12,D,memory-resp,#FFFFFF,#a92819,image1,7,image355,443.2,NA,right,right,TRUE,1816.7000000178814,image355,image355
13,2,12,D,retrieval,NA,NA,NA,NA,NA,NA,image94,NA,image138,FALSE,1375.5,image94,image78
13,2,12,D,retrieval,NA,NA,NA,NA,NA,NA,image195,NA,image94,FALSE,3182,image195,image78
13,2,12,D,retrieval,NA,NA,NA,NA,NA,NA,image285,NA,image382,FALSE,4649.0999999940395,image285,image78
13,2,12,D,retrieval,NA,NA,NA,NA,NA,NA,image355,NA,image355,TRUE,1009.1999999880791,image355,image78
13,2,13,D,memory-resp,#FFFFFF,#508195,image60,165,image22,9.1,NA,left,left,TRUE,2437.7999999821186,image22,image60
13,2,13,D,memory-resp,#FFFFFF,#68ad48,image61,6,image3,12,NA,right,right,TRUE,1910.6000000238419,image3,image3
13,2,13,D,memory-resp,#bd372e,#FFFFFF,image346,950,image160,0.7,NA,left,left,TRUE,1500.199999988079,image346,image346
13,2,13,D,memory-resp,#FFFFFF,#580f8f,image361,26.5,image146,95,NA,right,right,TRUE,1576.9000000059605,image146,image146
13,2,13,D,retrieval,NA,NA,NA,NA,NA,NA,image346,NA,image346,TRUE,3526.7999999821186,image346,image60
13,2,13,D,retrieval,NA,NA,NA,NA,NA,NA,image146,NA,image146,TRUE,5496.199999988079,image146,image60
13,2,13,D,retrieval,NA,NA,NA,NA,NA,NA,image22,NA,image22,TRUE,3266.199999988079,image22,image60
13,2,13,D,retrieval,NA,NA,NA,NA,NA,NA,image3,NA,image3,TRUE,1793.300000011921,image3,image60
13,2,14,D,memory-resp,#FFFFFF,#883034,image259,30,image344,4,NA,left,left,TRUE,1598.7000000178814,image344,image259
13,2,14,D,memory-resp,#511985,#FFFFFF,image425,700,image414,55,NA,left,right,FALSE,1191.4000000059605,image425,image425
13,2,14,D,memory-resp,#23718b,#FFFFFF,image357,4.3,image285,240,NA,right,right,TRUE,1583.300000011921,image357,image285
13,2,14,D,memory-resp,#4d6930,#FFFFFF,image318,9.5,image294,2.5,NA,left,left,TRUE,2092.9000000059605,image318,image318
13,2,14,D,retrieval,NA,NA,NA,NA,NA,NA,image344,NA,image344,TRUE,3783.9000000059605,image344,image259
13,2,14,D,retrieval,NA,NA,NA,NA,NA,NA,image318,NA,image318,TRUE,2249,image318,image259
13,2,14,D,retrieval,NA,NA,NA,NA,NA,NA,image425,NA,image425,TRUE,1762.1000000238419,image425,image259
13,2,14,D,retrieval,NA,NA,NA,NA,NA,NA,image357,NA,image357,TRUE,1515.7999999821186,image357,image259
13,2,15,D,memory-resp,#FFFFFF,#3092b5,image346,950,image25,40,NA,left,left,TRUE,2144.199999988079,image25,image346
13,2,15,D,memory-resp,#FFFFFF,#bd1fbd,image214,80,image187,300,NA,right,right,TRUE,1264.9000000059605,image187,image187
13,2,15,D,memory-resp,#77522c,#FFFFFF,image243,27.1,image45,13,NA,left,left,TRUE,1921.9000000059605,image243,image243
13,2,15,D,memory-resp,#2f7b1e,#FFFFFF,image338,12,image148,30,NA,right,right,TRUE,1275.9000000059605,image338,image148
13,2,15,D,retrieval,NA,NA,NA,NA,NA,NA,image243,NA,image243,TRUE,2344.199999988079,image243,image346
13,2,15,D,retrieval,NA,NA,NA,NA,NA,NA,image25,NA,image25,TRUE,2618.9000000059605,image25,image346
13,2,15,D,retrieval,NA,NA,NA,NA,NA,NA,image338,NA,image338,TRUE,2477,image338,image346
13,2,15,D,retrieval,NA,NA,NA,NA,NA,NA,image187,NA,image187,TRUE,2562,image187,image346
13,3,P1,B,processing,#FFFFFF,#891a57,image405,10,image225,22,NA,left,left,TRUE,676.2000000178814,NA,NA
13,3,P1,B,processing,#FFFFFF,#b2990a,image405,10,image132,15,NA,left,left,TRUE,644.5,NA,NA
13,3,P1,B,processing,#FFFFFF,#31337d,image405,10,image145,10,NA,left,left,TRUE,692.2000000178814,NA,NA
13,3,P1,B,processing,#FFFFFF,#4b9564,image405,10,image234,24,NA,left,left,TRUE,680.4000000059605,NA,NA
13,3,P2,B,processing,#FFFFFF,#bee510,image405,10,image225,22,NA,left,left,TRUE,644.8000000119209,NA,NA
13,3,P2,B,processing,#9f3851,#FFFFFF,image324,1.4,image405,10,NA,right,right,TRUE,649.0999999940395,NA,NA
13,3,P2,B,processing,#470ccf,#FFFFFF,image346,950,image405,10,NA,right,right,TRUE,693.1999999880791,NA,NA
13,3,P2,B,processing,#10d173,#FFFFFF,image130,250,image405,10,NA,right,right,TRUE,680.9000000059605,NA,NA
13,3,P3,B,processing,#958628,#FFFFFF,image145,10,image405,10,NA,right,right,TRUE,616.7000000178814,NA,NA
13,3,P3,B,processing,#FFFFFF,#c10b8a,image405,10,image209,5.5,NA,left,left,TRUE,827.6000000238419,NA,NA
13,3,P3,B,processing,#FFFFFF,#231a84,image405,10,image61,6,NA,left,left,TRUE,694.8999999761581,NA,NA
13,3,P3,B,processing,#FFFFFF,#21835d,image405,10,image98,15,NA,left,left,TRUE,711.0999999940395,NA,NA
13,3,P4,B,processing,#FFFFFF,#b1ca12,image405,10,image394,10,NA,left,left,TRUE,628.2000000178814,NA,NA
13,3,P4,B,processing,#FFFFFF,#463f7d,image405,10,image179,15.5,NA,left,left,TRUE,677.1999999880791,NA,NA
13,3,P4,B,processing,#FFFFFF,#22b97d,image405,10,image409,28,NA,left,left,TRUE,580.8000000119209,NA,NA
13,3,P4,B,processing,#ca2159,#FFFFFF,image66,999,image405,10,NA,right,right,TRUE,577.5999999940395,NA,NA
13,3,P5,B,processing,#FFFFFF,#87175e,image405,10,image213,0.7,NA,left,left,TRUE,676.2000000178814,NA,NA
13,3,P5,B,processing,#171d87,#FFFFFF,image4,7,image405,10,NA,right,right,TRUE,711,NA,NA
13,3,P5,B,processing,#b6b63e,#FFFFFF,image112,13,image405,10,NA,right,right,TRUE,660.4000000059605,NA,NA
13,3,P5,B,processing,#0dce4d,#FFFFFF,image307,28,image405,10,NA,right,right,TRUE,663.5,NA,NA
13,3,P6,B,processing,#5f7b1e,#FFFFFF,image141,30,image405,10,NA,right,right,TRUE,561.0999999940395,NA,NA
13,3,P6,B,processing,#FFFFFF,#634c94,image405,10,image320,170,NA,left,left,TRUE,712.6999999880791,NA,NA
13,3,P6,B,processing,#d3173d,#FFFFFF,image244,65,image405,10,NA,right,right,TRUE,523.9000000059605,NA,NA
13,3,P6,B,processing,#41af9d,#FFFFFF,image262,7.5,image405,10,NA,right,right,TRUE,632.5999999940395,NA,NA
13,3,P7,B,processing,#41af64,#FFFFFF,image146,95,image405,10,NA,right,right,TRUE,609.7999999821186,NA,NA
13,3,P7,B,processing,#897634,#FFFFFF,image419,150,image405,10,NA,right,right,TRUE,527.6000000238419,NA,NA
13,3,P7,B,processing,#FFFFFF,#863c6b,image405,10,image19,8,NA,left,left,TRUE,776.2000000178814,NA,NA
13,3,P7,B,processing,#FFFFFF,#20267e,image405,10,image378,13,NA,left,left,TRUE,776.0999999940395,NA,NA
13,3,P8,B,processing,#FFFFFF,#338079,image405,10,image400,42,NA,left,left,TRUE,650.2999999821186,NA,NA
13,3,P8,B,processing,#FFFFFF,#80333b,image405,10,image395,8.2,NA,left,left,TRUE,644.2000000178814,NA,NA
13,3,P8,B,processing,#3c9419,#FFFFFF,image295,7.1,image405,10,NA,right,right,TRUE,636.7000000178814,NA,NA
13,3,P8,B,processing,#7743a8,#FFFFFF,image126,11,image405,10,NA,right,right,TRUE,629,NA,NA
13,3,P9,B,processing,#908427,#FFFFFF,image50,8,image405,10,NA,right,right,TRUE,645,NA,NA
13,3,P9,B,processing,#FFFFFF,#367246,image405,10,image263,5.4,NA,left,left,TRUE,663,NA,NA
13,3,P9,B,processing,#b1358c,#FFFFFF,image272,35,image405,10,NA,right,right,TRUE,599.7000000178814,NA,NA
13,3,P9,B,processing,#2a4993,#FFFFFF,image182,800,image405,10,NA,right,right,TRUE,626.2000000178814,NA,NA
13,3,P10,B,processing,#de9a12,#FFFFFF,image57,2.5,image405,10,NA,right,right,TRUE,617.7999999821186,NA,NA
13,3,P10,B,processing,#FFFFFF,#129b1e,image405,10,image15,12,NA,left,left,TRUE,676.3000000119209,NA,NA
13,3,P10,B,processing,#214b78,#FFFFFF,image305,0.2,image405,10,NA,right,right,TRUE,509.69999998807907,NA,NA
13,3,P10,B,processing,#b0408d,#FFFFFF,image201,20,image405,10,NA,right,right,TRUE,647.1999999880791,NA,NA
13,3,P11,B,processing,#FFFFFF,#842e6d,image405,10,image70,7,NA,left,left,TRUE,633.9000000059605,NA,NA
13,3,P11,B,processing,#FFFFFF,#25d047,image405,10,image160,0.7,NA,left,left,TRUE,727.2000000178814,NA,NA
13,3,P11,B,processing,#ab9030,#FFFFFF,image239,6,image405,10,NA,right,right,TRUE,711.4000000059605,NA,NA
13,3,P11,B,processing,#4a568c,#FFFFFF,image401,12,image405,10,NA,right,right,TRUE,671.5999999940395,NA,NA
13,3,P12,B,processing,#9521d4,#FFFFFF,image96,180,image405,10,NA,right,right,TRUE,678.8000000119209,NA,NA
13,3,P12,B,processing,#25a9cb,#FFFFFF,image45,13,image405,10,NA,right,right,TRUE,648.5,NA,NA
13,3,P12,B,processing,#a73d0c,#FFFFFF,image255,4.5,image405,10,NA,right,right,TRUE,628.5999999940395,NA,NA
13,3,P12,B,processing,#2f901d,#FFFFFF,image59,0.8,image405,10,NA,right,right,TRUE,575.4000000059605,NA,NA
13,3,P13,B,processing,#d07a11,#FFFFFF,image284,200,image405,10,NA,right,right,TRUE,631.5999999940395,NA,NA
13,3,P13,B,processing,#FFFFFF,#951499,image405,10,image215,153,NA,left,left,TRUE,666.0999999940395,NA,NA
13,3,P13,B,processing,#2e708a,#FFFFFF,image343,16,image405,10,NA,right,right,TRUE,530.1999999880791,NA,NA
13,3,P13,B,processing,#38892a,#FFFFFF,image193,85,image405,10,NA,right,right,TRUE,528.5,NA,NA
13,3,P14,B,processing,#FFFFFF,#81563b,image405,10,image9,36,NA,left,left,TRUE,647,NA,NA
13,3,P14,B,processing,#3984ac,#FFFFFF,image140,2,image405,10,NA,right,right,TRUE,562.2000000178814,NA,NA
13,3,P14,B,processing,#FFFFFF,#43b33d,image405,10,image77,120,NA,left,left,TRUE,675.9000000059605,NA,NA
13,3,P14,B,processing,#b110a7,#FFFFFF,image233,6.2,image405,10,NA,right,right,TRUE,537,NA,NA
13,3,P15,B,processing,#FFFFFF,#14dee1,image405,10,image418,25,NA,left,left,TRUE,632.4000000059605,NA,NA
13,3,P15,B,processing,#FFFFFF,#b64353,image405,10,image212,8,NA,left,left,TRUE,778.8000000119209,NA,NA
13,3,P15,B,processing,#6f2b91,#FFFFFF,image276,90,image405,10,NA,right,right,TRUE,583.5999999940395,NA,NA
13,3,P15,B,processing,#7eab3b,#FFFFFF,image104,6,image405,10,NA,right,right,TRUE,643.0999999940395,NA,NA
13,3,P16,B,processing,#1ac737,#FFFFFF,image312,20.5,image405,10,NA,right,right,TRUE,612.5999999940395,NA,NA
13,3,P16,B,processing,#273996,#FFFFFF,image109,8,image405,10,NA,right,right,TRUE,577.6999999880791,NA,NA
13,3,P16,B,processing,#FFFFFF,#a9920f,image405,10,image232,180,NA,left,left,TRUE,712.6999999880791,NA,NA
13,3,P16,B,processing,#FFFFFF,#a2578b,image405,10,image407,5,NA,left,left,TRUE,694,NA,NA
13,3,P17,B,processing,#FFFFFF,#2a7977,image405,10,image287,7,NA,left,left,TRUE,660.5,NA,NA
13,3,P17,B,processing,#FFFFFF,#88b10b,image405,10,image161,8.7,NA,left,left,TRUE,676.2999999821186,NA,NA
13,3,P17,B,processing,#601dc3,#FFFFFF,image140,2,image405,10,NA,right,right,TRUE,641.9000000059605,NA,NA
13,3,P17,B,processing,#FFFFFF,#7f2e45,image405,10,image95,1,NA,left,left,TRUE,598.2000000178814,NA,NA
13,3,P18,B,processing,#FFFFFF,#1c872c,image405,10,image57,2.5,NA,left,left,TRUE,657.3000000119209,NA,NA
13,3,P18,B,processing,#0f1b9f,#FFFFFF,image52,800,image405,10,NA,right,right,TRUE,560,NA,NA
13,3,P18,B,processing,#FFFFFF,#b44684,image405,10,image44,10,NA,left,left,TRUE,547.2999999821186,NA,NA
13,3,P18,B,processing,#FFFFFF,#967217,image405,10,image179,15.5,NA,left,left,TRUE,727.1999999880791,NA,NA
13,3,P19,B,processing,#FFFFFF,#1c8268,image405,10,image417,9,NA,left,left,TRUE,693.9000000059605,NA,NA
13,3,P19,B,processing,#b62542,#FFFFFF,image158,150,image405,10,NA,right,right,TRUE,632.6999999880791,NA,NA
13,3,P19,B,processing,#530ec4,#FFFFFF,image353,5,image405,10,NA,right,right,TRUE,742.1000000238419,NA,NA
13,3,P19,B,processing,#838641,#FFFFFF,image140,2,image405,10,NA,right,right,TRUE,742.0999999940395,NA,NA
13,3,P20,B,processing,#FFFFFF,#317738,image405,10,image379,15,NA,left,left,TRUE,648.2999999821186,NA,NA
13,3,P20,B,processing,#76442e,#FFFFFF,image253,50,image405,10,NA,right,right,TRUE,394.2999999821186,NA,NA
13,3,P20,B,processing,#397084,#FFFFFF,image133,300,image405,10,NA,right,right,TRUE,710.1999999880791,NA,NA
13,3,P20,B,processing,#c22ec2,#FFFFFF,image209,5.5,image405,10,NA,right,right,TRUE,740,NA,NA
13,3,P21,B,processing,#a93278,#FFFFFF,image199,7,image405,10,NA,right,right,TRUE,626.2999999821186,NA,NA
13,3,P21,B,processing,#7a7f3d,#FFFFFF,image70,7,image405,10,NA,right,right,TRUE,644.3000000119209,NA,NA
13,3,P21,B,processing,#FFFFFF,#0e35e1,image405,10,image255,4.5,NA,left,left,TRUE,798.6000000238419,NA,NA
13,3,P21,B,processing,#FFFFFF,#3e986a,image405,10,image353,5,NA,left,left,TRUE,744.4000000059605,NA,NA
13,3,P22,B,processing,#7a2430,#FFFFFF,image63,800,image405,10,NA,right,right,TRUE,610.5,NA,NA
13,3,P22,B,processing,#FFFFFF,#84a352,image405,10,image93,1.5,NA,left,left,TRUE,659.0999999940395,NA,NA
13,3,P22,B,processing,#FFFFFF,#098290,image405,10,image380,30.8,NA,left,left,TRUE,804.8999999761581,NA,NA
13,3,P22,B,processing,#5b3a8d,#FFFFFF,image28,10,image405,10,NA,right,right,TRUE,475.2999999821186,NA,NA
13,3,P23,B,processing,#704cae,#FFFFFF,image82,95,image405,10,NA,right,right,TRUE,684.9000000059605,NA,NA
13,3,P23,B,processing,#FFFFFF,#269285,image405,10,image245,10.5,NA,left,left,TRUE,591.9000000059605,NA,NA
13,3,P23,B,processing,#FFFFFF,#8e1f34,image405,10,image132,15,NA,left,left,TRUE,828.0999999940395,NA,NA
13,3,P23,B,processing,#6f8f38,#FFFFFF,image180,14,image405,10,NA,right,right,TRUE,528.3000000119209,NA,NA
13,3,P24,B,processing,#FFFFFF,#21cb15,image405,10,image79,170,NA,left,left,TRUE,663.4000000059605,NA,NA
13,3,P24,B,processing,#a36f14,#FFFFFF,image420,150,image405,10,NA,right,right,TRUE,549.0999999940395,NA,NA
13,3,P24,B,processing,#FFFFFF,#6f3969,image405,10,image293,60.2,NA,left,left,TRUE,679,NA,NA
13,3,P24,B,processing,#FFFFFF,#487ea3,image405,10,image312,20.5,NA,left,left,TRUE,711.8000000119209,NA,NA
13,3,P25,B,processing,#933e89,#FFFFFF,image258,7,image405,10,NA,right,right,TRUE,695.6999999880791,NA,NA
13,3,P25,B,processing,#FFFFFF,#cf802a,image405,10,image389,4.8,NA,left,left,TRUE,426.7999999821186,NA,NA
13,3,P25,B,processing,#4076b0,#FFFFFF,image7,3,image405,10,NA,right,right,TRUE,545.9000000059605,NA,NA
13,3,P25,B,processing,#0b9831,#FFFFFF,image205,999,image405,10,NA,right,right,TRUE,890.7000000178814,NA,NA
13,3,1,B,memory-resp,#FFFFFF,#329a90,image405,10,image149,29.3,NA,left,left,TRUE,878.8000000119209,image149,image405
13,3,1,B,memory-resp,#658627,#FFFFFF,image104,6,image405,10,NA,right,right,TRUE,1358.1000000238419,image104,image405
13,3,1,B,memory-resp,#48109e,#FFFFFF,image64,960,image405,10,NA,right,right,TRUE,828.2000000178814,image64,image405
13,3,1,B,memory-resp,#b82d28,#FFFFFF,image232,180,image405,10,NA,right,right,TRUE,806.5,image232,image405
13,3,1,B,retrieval,NA,NA,NA,NA,NA,NA,image104,NA,image104,TRUE,1980.0999999940395,image104,image405
13,3,1,B,retrieval,NA,NA,NA,NA,NA,NA,image149,NA,image149,TRUE,2095.2999999821186,image149,image405
13,3,1,B,retrieval,NA,NA,NA,NA,NA,NA,image64,NA,image64,TRUE,1565,image64,image405
13,3,1,B,retrieval,NA,NA,NA,NA,NA,NA,image232,NA,image232,TRUE,1312.199999988079,image232,image405
13,3,2,B,memory-resp,#FFFFFF,#1d9a4d,image405,10,image341,5,NA,left,left,TRUE,1142.8999999761581,image341,image405
13,3,2,B,memory-resp,#FFFFFF,#979220,image405,10,image319,34,NA,left,left,TRUE,1283.4000000059605,image319,image405
13,3,2,B,memory-resp,#FFFFFF,#9a2d67,image405,10,image50,8,NA,left,left,TRUE,1193.5,image50,image405
13,3,2,B,memory-resp,#FFFFFF,#232b9f,image405,10,image278,21.6,NA,left,left,TRUE,1910.5,image278,image405
13,3,2,B,retrieval,NA,NA,NA,NA,NA,NA,image341,NA,image319,FALSE,3102.5,image341,image405
13,3,2,B,retrieval,NA,NA,NA,NA,NA,NA,image278,NA,image278,TRUE,3930.4000000059605,image278,image405
13,3,2,B,retrieval,NA,NA,NA,NA,NA,NA,image50,NA,image50,TRUE,1976.800000011921,image50,image405
13,3,2,B,retrieval,NA,NA,NA,NA,NA,NA,image319,NA,image303,FALSE,1846.5,image319,image405
13,3,3,B,memory-resp,#FFFFFF,#902771,image405,10,image261,9.5,NA,left,left,TRUE,967.3999999761581,image261,image405
13,3,3,B,memory-resp,#FFFFFF,#2ba13d,image405,10,image252,12,NA,left,left,TRUE,1176.4000000059605,image252,image405
13,3,3,B,memory-resp,#FFFFFF,#c4891c,image405,10,image60,165,NA,left,left,TRUE,1099.0999999940395,image60,image405
13,3,3,B,memory-resp,#FFFFFF,#385ab7,image405,10,image125,5.1,NA,left,left,TRUE,1041.5,image125,image405
13,3,3,B,retrieval,NA,NA,NA,NA,NA,NA,image125,NA,image125,TRUE,1918,image125,image405
13,3,3,B,retrieval,NA,NA,NA,NA,NA,NA,image252,NA,NULL,FALSE,NA,image252,image405
13,3,3,B,retrieval,NA,NA,NA,NA,NA,NA,image261,NA,image261,TRUE,3475.4000000059605,image261,image405
13,3,3,B,retrieval,NA,NA,NA,NA,NA,NA,image60,NA,image60,TRUE,2298.800000011921,image60,image405
13,3,4,B,memory-resp,#c0421b,#FFFFFF,image218,13.5,image405,10,NA,right,right,TRUE,842.5,image218,image405
13,3,4,B,memory-resp,#3d7133,#FFFFFF,image179,15.5,image405,10,NA,right,right,TRUE,814.4000000059605,image179,image405
13,3,4,B,memory-resp,#34767f,#FFFFFF,image192,20,image405,10,NA,right,right,TRUE,1336.800000011921,image192,image405
13,3,4,B,memory-resp,#850fb3,#FFFFFF,image138,2,image405,10,NA,right,right,TRUE,1774,image138,image405
13,3,4,B,retrieval,NA,NA,NA,NA,NA,NA,image138,NA,image138,TRUE,1265,image138,image405
13,3,4,B,retrieval,NA,NA,NA,NA,NA,NA,image218,NA,image218,TRUE,4511.5999999940395,image218,image405
13,3,4,B,retrieval,NA,NA,NA,NA,NA,NA,image192,NA,image192,TRUE,4131.0999999940395,image192,image405
13,3,4,B,retrieval,NA,NA,NA,NA,NA,NA,image179,NA,image179,TRUE,2413.2999999821186,image179,image405
13,3,5,B,memory-resp,#0d359c,#FFFFFF,image308,0.8,image405,10,NA,right,right,TRUE,823.6000000238419,image308,image405
13,3,5,B,memory-resp,#47a975,#FFFFFF,image62,7.5,image405,10,NA,right,right,TRUE,837.2000000178814,image62,image405
13,3,5,B,memory-resp,#a4288d,#FFFFFF,image158,150,image405,10,NA,right,right,TRUE,1093.7999999821186,image158,image405
13,3,5,B,memory-resp,#FFFFFF,#ba8d2c,image405,10,image361,26.5,NA,left,left,TRUE,1760.4000000059605,image361,image405
13,3,5,B,retrieval,NA,NA,NA,NA,NA,NA,image158,NA,image158,TRUE,2045.7000000178814,image158,image405
13,3,5,B,retrieval,NA,NA,NA,NA,NA,NA,image308,NA,image308,TRUE,3080.4000000059605,image308,image405
13,3,5,B,retrieval,NA,NA,NA,NA,NA,NA,image62,NA,image62,TRUE,1996.5999999940395,image62,image405
13,3,5,B,retrieval,NA,NA,NA,NA,NA,NA,image361,NA,image361,TRUE,761,image361,image405
13,3,6,B,memory-resp,#FFFFFF,#247a49,image405,10,image391,20,NA,left,left,TRUE,2378.0999999940395,image391,image405
13,3,6,B,memory-resp,#FFFFFF,#1a68d5,image405,10,image198,6.8,NA,left,left,TRUE,1413,image198,image405
13,3,6,B,memory-resp,#73356c,#FFFFFF,image43,18,image405,10,NA,right,right,TRUE,1025.699999988079,image43,image405
13,3,6,B,memory-resp,#FFFFFF,#d9ad0d,image405,10,image300,800,NA,left,left,TRUE,1881.5,image300,image405
13,3,6,B,retrieval,NA,NA,NA,NA,NA,NA,image43,NA,image43,TRUE,3154.699999988079,image43,image405
13,3,6,B,retrieval,NA,NA,NA,NA,NA,NA,image391,NA,image391,TRUE,1765.9000000059605,image391,image405
13,3,6,B,retrieval,NA,NA,NA,NA,NA,NA,image198,NA,image300,FALSE,2876.7999999821186,image198,image405
13,3,6,B,retrieval,NA,NA,NA,NA,NA,NA,image300,NA,image105,FALSE,4182,image300,image405
13,3,7,B,memory-resp,#FFFFFF,#aed327,image405,10,image233,6.2,NA,left,left,TRUE,1381.8999999761581,image233,image405
13,3,7,B,memory-resp,#543582,#FFFFFF,image55,75,image405,10,NA,right,right,TRUE,1470.699999988079,image55,image405
13,3,7,B,memory-resp,#95091b,#FFFFFF,image88,3.5,image405,10,NA,right,right,TRUE,1325,image88,image405
13,3,7,B,memory-resp,#2d7665,#FFFFFF,image94,3.4,image405,10,NA,right,right,TRUE,1364.9000000059605,image94,image405
13,3,7,B,retrieval,NA,NA,NA,NA,NA,NA,image88,NA,image88,TRUE,1743.199999988079,image88,image405
13,3,7,B,retrieval,NA,NA,NA,NA,NA,NA,image55,NA,image55,TRUE,1600.9000000059605,image55,image405
13,3,7,B,retrieval,NA,NA,NA,NA,NA,NA,image233,NA,image233,TRUE,2393.5999999940395,image233,image405
13,3,7,B,retrieval,NA,NA,NA,NA,NA,NA,image94,NA,image88,FALSE,2378.7000000178814,image94,image405
13,3,8,B,memory-resp,#8c991a,#FFFFFF,image395,8.2,image405,10,NA,right,right,TRUE,1911.9000000059605,image395,image405
13,3,8,B,memory-resp,#FFFFFF,#902c59,image405,10,image263,5.4,NA,left,left,TRUE,2481.399999976158,image263,image405
13,3,8,B,memory-resp,#27c49a,#FFFFFF,image389,4.8,image405,10,NA,right,right,TRUE,1678.300000011921,image389,image405
13,3,8,B,memory-resp,#FFFFFF,#5536a6,image405,10,image417,9,NA,left,left,TRUE,1387.4000000059605,image417,image405
13,3,8,B,retrieval,NA,NA,NA,NA,NA,NA,image395,NA,image263,FALSE,3578.199999988079,image395,image405
13,3,8,B,retrieval,NA,NA,NA,NA,NA,NA,image417,NA,image417,TRUE,2129.5999999940395,image417,image405
13,3,8,B,retrieval,NA,NA,NA,NA,NA,NA,image263,NA,image214,FALSE,3911.4000000059605,image263,image405
13,3,8,B,retrieval,NA,NA,NA,NA,NA,NA,image389,NA,image389,TRUE,2210.199999988079,image389,image405
13,3,9,B,memory-resp,#227c2d,#FFFFFF,image109,8,image405,10,NA,right,right,TRUE,913.4000000059605,image109,image405
13,3,9,B,memory-resp,#396c93,#FFFFFF,image261,9.5,image405,10,NA,right,right,TRUE,786.9000000059605,image261,image405
13,3,9,B,memory-resp,#FFFFFF,#856238,image405,10,image389,4.8,NA,left,left,TRUE,1489.199999988079,image389,image405
13,3,9,B,memory-resp,#c337b3,#FFFFFF,image392,160,image405,10,NA,right,right,TRUE,1084.7999999821186,image392,image405
13,3,9,B,retrieval,NA,NA,NA,NA,NA,NA,image261,NA,image261,TRUE,3915.2999999821186,image261,image405
13,3,9,B,retrieval,NA,NA,NA,NA,NA,NA,image389,NA,image389,TRUE,3270.5,image389,image405
13,3,9,B,retrieval,NA,NA,NA,NA,NA,NA,image109,NA,image109,TRUE,5992.300000011921,image109,image405
13,3,9,B,retrieval,NA,NA,NA,NA,NA,NA,image392,NA,image392,TRUE,2481.300000011921,image392,image405
13,3,10,B,memory-resp,#7d30a1,#FFFFFF,image125,5.1,image405,10,NA,right,right,TRUE,809.5,image125,image405
13,3,10,B,memory-resp,#5a9433,#FFFFFF,image99,16.5,image405,10,NA,right,right,TRUE,964.2999999821186,image99,image405
13,3,10,B,memory-resp,#FFFFFF,#286a71,image405,10,image319,34,NA,left,left,TRUE,1440.9000000059605,image319,image405
13,3,10,B,memory-resp,#a5220d,#FFFFFF,image329,8,image405,10,NA,right,right,TRUE,1418,image329,image405
13,3,10,B,retrieval,NA,NA,NA,NA,NA,NA,image125,NA,image125,TRUE,3275.9000000059605,image125,image405
13,3,10,B,retrieval,NA,NA,NA,NA,NA,NA,image329,NA,image329,TRUE,2480.699999988079,image329,image405
13,3,10,B,retrieval,NA,NA,NA,NA,NA,NA,image319,NA,image319,TRUE,2429.800000011921,image319,image405
13,3,10,B,retrieval,NA,NA,NA,NA,NA,NA,image99,NA,image99,TRUE,2167.5,image99,image405
13,3,11,B,memory-resp,#FFFFFF,#727335,image405,10,image279,34.7,NA,left,left,TRUE,1945,image279,image405
13,3,11,B,memory-resp,#bb357f,#FFFFFF,image380,30.8,image405,10,NA,right,right,TRUE,904.7999999821186,image380,image405
13,3,11,B,memory-resp,#FFFFFF,#3b3bbf,image405,10,image120,450,NA,left,left,TRUE,961.9000000059605,image120,image405
13,3,11,B,memory-resp,#458c61,#FFFFFF,image208,11,image405,10,NA,right,right,TRUE,802.0999999940395,image208,image405
13,3,11,B,retrieval,NA,NA,NA,NA,NA,NA,image120,NA,image120,TRUE,2566.2999999821186,image120,image405
13,3,11,B,retrieval,NA,NA,NA,NA,NA,NA,image208,NA,image208,TRUE,1498,image208,image405
13,3,11,B,retrieval,NA,NA,NA,NA,NA,NA,image380,NA,image380,TRUE,2980,image380,image405
13,3,11,B,retrieval,NA,NA,NA,NA,NA,NA,image279,NA,image279,TRUE,2714.300000011921,image279,image405
13,3,12,B,memory-resp,#FFFFFF,#b61621,image405,10,image416,400,NA,left,right,FALSE,1506,image416,image405
13,3,12,B,memory-resp,#FFFFFF,#5e882b,image405,10,image286,270,NA,left,left,TRUE,1197.1000000238419,image286,image405
13,3,12,B,memory-resp,#FFFFFF,#5411a2,image405,10,image428,9,NA,left,left,TRUE,961.5,image428,image405
13,3,12,B,memory-resp,#329a89,#FFFFFF,image123,4.8,image405,10,NA,right,right,TRUE,1802.699999988079,image123,image405
13,3,12,B,retrieval,NA,NA,NA,NA,NA,NA,image123,NA,image123,TRUE,8347.799999982119,image123,image405
13,3,12,B,retrieval,NA,NA,NA,NA,NA,NA,image286,NA,image286,TRUE,2198.4000000059605,image286,image405
13,3,12,B,retrieval,NA,NA,NA,NA,NA,NA,image428,NA,image428,TRUE,1761.5,image428,image405
13,3,12,B,retrieval,NA,NA,NA,NA,NA,NA,image416,NA,image416,TRUE,2981.199999988079,image416,image405
13,3,13,B,memory-resp,#FFFFFF,#49ab36,image405,10,image140,2,NA,left,left,TRUE,963.7999999821186,image140,image405
13,3,13,B,memory-resp,#7c188c,#FFFFFF,image417,9,image405,10,NA,right,right,TRUE,1089.0999999940395,image417,image405
13,3,13,B,memory-resp,#FFFFFF,#154e99,image405,10,image126,11,NA,left,left,TRUE,1164.0999999940395,image126,image405
13,3,13,B,memory-resp,#FFFFFF,#d15d1a,image405,10,image103,999,NA,left,left,TRUE,1026.5,image103,image405
13,3,13,B,retrieval,NA,NA,NA,NA,NA,NA,image126,NA,image417,FALSE,2117.399999976158,image126,image405
13,3,13,B,retrieval,NA,NA,NA,NA,NA,NA,image140,NA,image140,TRUE,1721,image140,image405
13,3,13,B,retrieval,NA,NA,NA,NA,NA,NA,image417,NA,image103,FALSE,3897.0999999940395,image417,image405
13,3,13,B,retrieval,NA,NA,NA,NA,NA,NA,image103,NA,image126,FALSE,929,image103,image405
13,3,14,B,memory-resp,#FFFFFF,#9e1a72,image405,10,image388,350,NA,left,left,TRUE,1707.5,image388,image405
13,3,14,B,memory-resp,#16b64b,#FFFFFF,image56,80,image405,10,NA,right,right,TRUE,1496.5,image56,image405
13,3,14,B,memory-resp,#FFFFFF,#8f8919,image405,10,image123,4.8,NA,left,left,TRUE,2093.4000000059605,image123,image405
13,3,14,B,memory-resp,#FFFFFF,#33528e,image405,10,image359,11,NA,left,left,TRUE,1966.5,image359,image405
13,3,14,B,retrieval,NA,NA,NA,NA,NA,NA,image123,NA,image123,TRUE,3307.800000011921,image123,image405
13,3,14,B,retrieval,NA,NA,NA,NA,NA,NA,image388,NA,image388,TRUE,4481,image388,image405
13,3,14,B,retrieval,NA,NA,NA,NA,NA,NA,image56,NA,image56,TRUE,3494.600000023842,image56,image405
13,3,14,B,retrieval,NA,NA,NA,NA,NA,NA,image359,NA,image359,TRUE,949.2999999821186,image359,image405
13,3,15,B,memory-resp,#FFFFFF,#bc312f,image405,10,image341,5,NA,left,left,TRUE,1585.6000000238419,image341,image405
13,3,15,B,memory-resp,#FFFFFF,#36a196,image405,10,image12,3,NA,left,left,TRUE,1062.800000011921,image12,image405
13,3,15,B,memory-resp,#FFFFFF,#6e903c,image405,10,image421,14,NA,left,left,TRUE,702.1000000238419,image421,image405
13,3,15,B,memory-resp,#623c9a,#FFFFFF,image217,8.5,image405,10,NA,right,right,TRUE,630.8000000119209,image217,image405
13,3,15,B,retrieval,NA,NA,NA,NA,NA,NA,image341,NA,image341,TRUE,4138.100000023842,image341,image405
13,3,15,B,retrieval,NA,NA,NA,NA,NA,NA,image12,NA,image12,TRUE,2811.800000011921,image12,image405
13,3,15,B,retrieval,NA,NA,NA,NA,NA,NA,image421,NA,image12,FALSE,828,image421,image405
13,3,15,B,retrieval,NA,NA,NA,NA,NA,NA,image217,NA,image429,FALSE,2996,image217,image405
11,1,P1,C,processing,#762aac,#FFFFFF,image106,30,image405,10,NA,left,left,TRUE,1138.5,NA,NA
11,1,P1,C,processing,#FFFFFF,#9d433f,image405,10,image105,7.1,NA,left,right,FALSE,1312.0999999046326,NA,NA
11,1,P1,C,processing,#FFFFFF,#86cb25,image405,10,image130,250,NA,right,right,TRUE,1337.8999999761581,NA,NA
11,1,P1,C,processing,#FFFFFF,#14ccc6,image405,10,image345,60,NA,right,right,TRUE,1616.5,NA,NA
11,1,P2,C,processing,#ad1051,#FFFFFF,image54,7,image405,10,NA,right,left,FALSE,1037.7999999523163,NA,NA
11,1,P2,C,processing,#FFFFFF,#ab9c4f,image405,10,image187,300,NA,right,right,TRUE,1357.7000000476837,NA,NA
11,1,P2,C,processing,#FFFFFF,#368c5b,image405,10,image21,20,NA,right,right,TRUE,1137.5,NA,NA
11,1,P2,C,processing,#1b15b7,#FFFFFF,image115,9.4,image405,10,NA,right,left,FALSE,1089.1000000238419,NA,NA
11,1,P3,C,processing,#FFFFFF,#509b57,image405,10,image139,9.6,NA,left,right,FALSE,1028,NA,NA
11,1,P3,C,processing,#FFFFFF,#9b1db4,image405,10,image359,11,NA,right,right,TRUE,1071.5,NA,NA
11,1,P3,C,processing,#FFFFFF,#4f6b92,image405,10,image129,17,NA,right,right,TRUE,1052.6999999284744,NA,NA
11,1,P3,C,processing,#d79d1d,#FFFFFF,image265,9.6,image405,10,NA,right,left,FALSE,2579.6999999284744,NA,NA
11,1,P4,C,processing,#FFFFFF,#1f6ca3,image405,10,image16,999,NA,right,right,TRUE,1181.1000000238419,NA,NA
11,1,P4,C,processing,#FFFFFF,#622183,image405,10,image292,6.8,NA,left,right,FALSE,1375.1999999284744,NA,NA
11,1,P4,C,processing,#3f9924,#FFFFFF,image245,10.5,image405,10,NA,left,left,TRUE,1237.3000000715256,NA,NA
11,1,P4,C,processing,#b64011,#FFFFFF,image427,40,image405,10,NA,left,left,TRUE,1329.6999999284744,NA,NA
11,1,P5,C,processing,#c02687,#FFFFFF,image304,18,image405,10,NA,left,left,TRUE,1340.5,NA,NA
11,1,P5,C,processing,#FFFFFF,#8c8617,image405,10,image329,8,NA,left,right,FALSE,1183.1999999284744,NA,NA
11,1,P5,C,processing,#2aac4d,#FFFFFF,image295,7.1,image405,10,NA,right,left,FALSE,1395.1000000238419,NA,NA
11,1,P5,C,processing,#1528a8,#FFFFFF,image207,24,image405,10,NA,left,left,TRUE,1366,NA,NA
11,1,P6,C,processing,#FFFFFF,#327b4d,image405,10,image399,9,NA,left,right,FALSE,1458.7999999523163,NA,NA
11,1,P6,C,processing,#FFFFFF,#ac1b66,image405,10,image335,6.3,NA,left,right,FALSE,1287.7999999523163,NA,NA
11,1,P6,C,processing,#abaf3c,#FFFFFF,image92,4,image405,10,NA,right,left,FALSE,2075.600000023842,NA,NA
11,1,P6,C,processing,#FFFFFF,#5d549c,image405,10,image343,16,NA,right,right,TRUE,1606,NA,NA
11,1,P7,C,processing,#3562b1,#FFFFFF,image337,12.3,image405,10,NA,left,left,TRUE,1162.3999999761581,NA,NA
11,1,P7,C,processing,#FFFFFF,#9a4791,image405,10,image31,150,NA,right,right,TRUE,969,NA,NA
11,1,P7,C,processing,#FFFFFF,#49ab67,image405,10,image256,10.2,NA,right,right,TRUE,1052.7000000476837,NA,NA
11,1,P7,C,processing,#bf952b,#FFFFFF,image240,19,image405,10,NA,left,left,TRUE,1192.7999999523163,NA,NA
11,1,P8,C,processing,#9f781e,#FFFFFF,image38,6.5,image405,10,NA,right,left,FALSE,1019.3999999761581,NA,NA
11,1,P8,C,processing,#324b95,#FFFFFF,image287,7,image405,10,NA,right,left,FALSE,1135,NA,NA
11,1,P8,C,processing,#FFFFFF,#be2392,image405,10,image325,12.6,NA,right,right,TRUE,1348.2999999523163,NA,NA
11,1,P8,C,processing,#4ea25a,#FFFFFF,image408,7,image405,10,NA,right,left,FALSE,1266.6999999284744,NA,NA
11,1,P9,C,processing,#FFFFFF,#86573c,image405,10,image142,1,NA,left,left,TRUE,1957.2999999523163,NA,NA
11,1,P9,C,processing,#1458b8,#FFFFFF,image81,2.7,image405,10,NA,right,right,TRUE,1936.3999999761581,NA,NA
11,1,P9,C,processing,#7a447e,#FFFFFF,image364,4.2,image405,10,NA,right,left,FALSE,1550.2999999523163,NA,NA
11,1,P9,C,processing,#FFFFFF,#37b011,image405,10,image177,15,NA,right,right,TRUE,1437.6999999284744,NA,NA
11,1,P10,C,processing,#FFFFFF,#ba6912,image405,10,image356,5.5,NA,left,right,FALSE,1537,NA,NA
11,1,P10,C,processing,#71386d,#FFFFFF,image102,700,image405,10,NA,left,left,TRUE,1211.7000000476837,NA,NA
11,1,P10,C,processing,#FFFFFF,#468a42,image405,10,image185,10.1,NA,right,right,TRUE,1375.1999999284744,NA,NA
11,1,P10,C,processing,#FFFFFF,#3e7098,image405,10,image147,3,NA,left,left,TRUE,1583.8999999761581,NA,NA
11,1,P11,C,processing,#FFFFFF,#359770,image405,10,image65,450,NA,right,right,TRUE,1542.8999999761581,NA,NA
11,1,P11,C,processing,#FFFFFF,#1c14bd,image405,10,image91,230,NA,right,right,TRUE,1251.3999999761581,NA,NA
11,1,P11,C,processing,#FFFFFF,#646a34,image405,10,image424,52.2,NA,right,right,TRUE,1210.3999999761581,NA,NA
11,1,P11,C,processing,#9b1264,#FFFFFF,image215,153,image405,10,NA,left,left,TRUE,1336.9000000953674,NA,NA
11,1,P12,C,processing,#39797f,#FFFFFF,image17,7,image405,10,NA,right,left,FALSE,996.6999999284744,NA,NA
11,1,P12,C,processing,#FFFFFF,#41ce0d,image405,10,image306,41.4,NA,right,right,TRUE,1505,NA,NA
11,1,P12,C,processing,#7f3d94,#FFFFFF,image198,6.8,image405,10,NA,right,left,FALSE,1200.1999999284744,NA,NA
11,1,P12,C,processing,#FFFFFF,#d75023,image405,10,image19,8,NA,left,right,FALSE,1409.7999999523163,NA,NA
11,1,P13,C,processing,#FFFFFF,#7d22d8,image405,10,image217,8.5,NA,left,right,FALSE,1324.7000000476837,NA,NA
11,1,P13,C,processing,#178c7b,#FFFFFF,image264,18.6,image405,10,NA,left,left,TRUE,1141.6000000238419,NA,NA
11,1,P13,C,processing,#FFFFFF,#609b36,image405,10,image297,7.9,NA,left,right,FALSE,1727.4000000953674,NA,NA
11,1,P13,C,processing,#FFFFFF,#723227,image405,10,image233,6.2,NA,left,right,FALSE,1564.2999999523163,NA,NA
11,1,P14,C,processing,#FFFFFF,#856f1e,image405,10,image302,11,NA,right,right,TRUE,1464,NA,NA
11,1,P14,C,processing,#FFFFFF,#37a955,image405,10,image158,150,NA,right,right,TRUE,1355.8999999761581,NA,NA
11,1,P14,C,processing,#FFFFFF,#991e8d,image405,10,image113,210,NA,right,right,TRUE,1201.5,NA,NA
11,1,P14,C,processing,#FFFFFF,#3c60af,image405,10,image126,11,NA,right,right,TRUE,1137.8999999761581,NA,NA
11,1,P15,C,processing,#31a5a3,#FFFFFF,image370,58.5,image405,10,NA,left,left,TRUE,1320,NA,NA
11,1,P15,C,processing,#5d9914,#FFFFFF,image3,12,image405,10,NA,left,left,TRUE,1145.6999999284744,NA,NA
11,1,P15,C,processing,#793c9f,#FFFFFF,image193,85,image405,10,NA,left,left,TRUE,1129.8999999761581,NA,NA
11,1,P15,C,processing,#b93631,#FFFFFF,image395,8.2,image405,10,NA,right,left,FALSE,1770.2000000476837,NA,NA
11,1,P16,C,processing,#FFFFFF,#9a1d6c,image405,10,image180,14,NA,right,right,TRUE,1238.5,NA,NA
11,1,P16,C,processing,#FFFFFF,#171acf,image405,10,image404,7.5,NA,left,right,FALSE,1210.3999999761581,NA,NA
11,1,P16,C,processing,#FFFFFF,#8f7728,image405,10,image217,8.5,NA,left,right,FALSE,1306.2999999523163,NA,NA
11,1,P16,C,processing,#FFFFFF,#1fdb5e,image405,10,image61,6,NA,left,right,FALSE,1444.7000000476837,NA,NA
11,1,P17,C,processing,#FFFFFF,#b6860c,image405,10,image333,13.2,NA,right,right,TRUE,1419.2000000476837,NA,NA
11,1,P17,C,processing,#FFFFFF,#de1274,image405,10,image43,18,NA,right,right,TRUE,1095,NA,NA
11,1,P17,C,processing,#FFFFFF,#4d47b3,image405,10,image339,20,NA,right,right,TRUE,1264.6000000238419,NA,NA
11,1,P17,C,processing,#2d8f58,#FFFFFF,image212,8,image405,10,NA,right,left,FALSE,1359.8999999761581,NA,NA
11,1,P18,C,processing,#11c04e,#FFFFFF,image4,7,image405,10,NA,right,left,FALSE,1359.2000000476837,NA,NA
11,1,P18,C,processing,#FFFFFF,#b22e7d,image405,10,image411,3.9,NA,left,right,FALSE,1620.8999999761581,NA,NA
11,1,P18,C,processing,#b3a119,#FFFFFF,image353,5,image405,10,NA,right,left,FALSE,1405.7999999523163,NA,NA
11,1,P18,C,processing,#FFFFFF,#342db9,image405,10,image135,8.4,NA,left,right,FALSE,1555.0999999046326,NA,NA
11,1,P19,C,processing,#FFFFFF,#3d3e71,image405,10,image209,5.5,NA,left,right,FALSE,1575.2999999523163,NA,NA
11,1,P19,C,processing,#ba3b61,#FFFFFF,image199,7,image405,10,NA,right,left,FALSE,1999.6000000238419,NA,NA
11,1,P19,C,processing,#3fa66c,#FFFFFF,image318,9.5,image405,10,NA,right,left,FALSE,1707.6000000238419,NA,NA
11,1,P19,C,processing,#FFFFFF,#95ab49,image405,10,image238,120,NA,right,right,TRUE,1276.5,NA,NA
11,1,P20,C,processing,#FFFFFF,#296a7f,image405,10,image201,20,NA,right,right,TRUE,1079.6999999284744,NA,NA
11,1,P20,C,processing,#9710da,#FFFFFF,image309,13.6,image405,10,NA,left,left,TRUE,1117.4000000953674,NA,NA
11,1,P20,C,processing,#3a792f,#FFFFFF,image378,13,image405,10,NA,left,left,TRUE,1004.8999999761581,NA,NA
11,1,P20,C,processing,#FFFFFF,#93503e,image405,10,image179,15.5,NA,right,right,TRUE,1534.6000000238419,NA,NA
11,1,P21,C,processing,#2025b1,#FFFFFF,image25,40,image405,10,NA,left,left,TRUE,1317.6000000238419,NA,NA
11,1,P21,C,processing,#FFFFFF,#23b375,image405,10,image274,3.9,NA,left,right,FALSE,1533.5,NA,NA
11,1,P21,C,processing,#FFFFFF,#777232,image405,10,image412,10.5,NA,right,right,TRUE,1611.1999999284744,NA,NA
11,1,P21,C,processing,#FFFFFF,#cc1997,image405,10,image2,6.3,NA,left,right,FALSE,1090.3999999761581,NA,NA
11,1,P22,C,processing,#FFFFFF,#a0ae37,image405,10,image73,1.6,NA,left,right,FALSE,1761.2999999523163,NA,NA
11,1,P22,C,processing,#831b2b,#FFFFFF,image300,800,image405,10,NA,left,left,TRUE,1222.2999999523163,NA,NA
11,1,P22,C,processing,#403281,#FFFFFF,image293,60.2,image405,10,NA,left,left,TRUE,1386.5,NA,NA
11,1,P22,C,processing,#21b575,#FFFFFF,image397,0.5,image405,10,NA,right,right,TRUE,1978.5999999046326,NA,NA
11,1,P23,C,processing,#7f6b39,#FFFFFF,image155,14.5,image405,10,NA,left,left,TRUE,1416.2000000476837,NA,NA
11,1,P23,C,processing,#FFFFFF,#42aa41,image405,10,image134,7,NA,left,right,FALSE,1324.5,NA,NA
11,1,P23,C,processing,#FFFFFF,#4a78a5,image405,10,image274,3.9,NA,left,left,TRUE,2033.6000000238419,NA,NA
11,1,P23,C,processing,#a35291,#FFFFFF,image368,18.5,image405,10,NA,left,left,TRUE,1520.1999999284744,NA,NA
11,1,P24,C,processing,#FFFFFF,#ae0f17,image405,10,image156,6.5,NA,left,right,FALSE,1379.6999999284744,NA,NA
11,1,P24,C,processing,#6613ae,#FFFFFF,image393,204,image405,10,NA,left,left,TRUE,1228,NA,NA
11,1,P24,C,processing,#FFFFFF,#7ba848,image405,10,image297,7.9,NA,left,right,FALSE,1160.5999999046326,NA,NA
11,1,P24,C,processing,#FFFFFF,#18878b,image405,10,image264,18.6,NA,right,left,FALSE,1656.1000000238419,NA,NA
11,1,P25,C,processing,#FFFFFF,#099f68,image405,10,image197,999,NA,right,right,TRUE,1164.3999999761581,NA,NA
11,1,P25,C,processing,#FFFFFF,#d21985,image405,10,image323,25,NA,right,right,TRUE,894.3000000715256,NA,NA
11,1,P25,C,processing,#FFFFFF,#7b7524,image405,10,image189,400,NA,right,right,TRUE,1147.2999999523163,NA,NA
11,1,P25,C,processing,#FFFFFF,#413a73,image405,10,image419,150,NA,right,right,TRUE,1075.3999999761581,NA,NA
11,1,1,C,memory-resp,#56ad43,#FFFFFF,image410,7,image405,10,NA,right,left,FALSE,1661.1000000238419,image410,image405
11,1,1,C,memory-resp,#FFFFFF,#3096c5,image405,10,image116,14.5,NA,right,right,TRUE,1432,image116,image116
11,1,1,C,memory-resp,#FFFFFF,#a57445,image405,10,image149,29.3,NA,right,right,TRUE,1344,image149,image149
11,1,1,C,memory-resp,#FFFFFF,#803c9a,image405,10,image371,7.1,NA,left,right,FALSE,1885.1000000238419,image371,image405
11,1,1,C,retrieval,NA,NA,NA,NA,NA,NA,image410,NA,image410,TRUE,3073.899999976158,image410,image405
11,1,1,C,retrieval,NA,NA,NA,NA,NA,NA,image149,NA,image371,FALSE,3536.7000000476837,image149,image405
11,1,1,C,retrieval,NA,NA,NA,NA,NA,NA,image116,NA,image149,FALSE,1063.5,image116,image405
11,1,1,C,retrieval,NA,NA,NA,NA,NA,NA,image371,NA,image116,FALSE,1471.1999999284744,image371,image405
11,1,2,C,memory-resp,#41b030,#FFFFFF,image237,8.1,image405,10,NA,right,left,FALSE,2724.5,image237,image405
11,1,2,C,memory-resp,#a55a18,#FFFFFF,image208,11,image405,10,NA,left,left,TRUE,2366.899999976158,image208,image208
11,1,2,C,memory-resp,#86418b,#FFFFFF,image56,80,image405,10,NA,left,left,TRUE,1418.7000000476837,image56,image56
11,1,2,C,memory-resp,#2e81bd,#FFFFFF,image358,16.2,image405,10,NA,left,left,TRUE,1303.8999999761581,image358,image358
11,1,2,C,retrieval,NA,NA,NA,NA,NA,NA,image208,NA,image237,FALSE,4826.399999976158,image208,image405
11,1,2,C,retrieval,NA,NA,NA,NA,NA,NA,image358,NA,image208,FALSE,1835.5,image358,image405
11,1,2,C,retrieval,NA,NA,NA,NA,NA,NA,image237,NA,image358,FALSE,1748.2999999523163,image237,image405
11,1,2,C,retrieval,NA,NA,NA,NA,NA,NA,image56,NA,image56,TRUE,4680.100000023842,image56,image405
11,1,3,C,memory-resp,#FFFFFF,#72543c,image405,10,image112,13,NA,right,right,TRUE,2394.600000023842,image112,image112
11,1,3,C,memory-resp,#FFFFFF,#14658a,image405,10,image18,18,NA,right,right,TRUE,1565.3000000715256,image18,image18
11,1,3,C,memory-resp,#FFFFFF,#30ce22,image405,10,image26,45,NA,right,right,TRUE,1350.8999999761581,image26,image26
11,1,3,C,memory-resp,#FFFFFF,#771a8e,image405,10,image237,8.1,NA,left,right,FALSE,1460.1999999284744,image237,image405
11,1,3,C,retrieval,NA,NA,NA,NA,NA,NA,image237,NA,image112,FALSE,1547.6000000238419,image237,image112
11,1,3,C,retrieval,NA,NA,NA,NA,NA,NA,image112,NA,image18,FALSE,1830.6999999284744,image112,image112
11,1,3,C,retrieval,NA,NA,NA,NA,NA,NA,image26,NA,image26,TRUE,2302.2000000476837,image26,image112
11,1,3,C,retrieval,NA,NA,NA,NA,NA,NA,image18,NA,image237,FALSE,1158.1999999284744,image18,image112
11,1,4,C,memory-resp,#FFFFFF,#335e70,image405,10,image90,23,NA,right,right,TRUE,2961,image90,image90
11,1,4,C,memory-resp,#FFFFFF,#28911d,image405,10,image292,6.8,NA,left,right,FALSE,1491.8000000715256,image292,image405
11,1,4,C,memory-resp,#7f5739,#FFFFFF,image104,6,image405,10,NA,right,left,FALSE,1326.3999999761581,image104,image405
11,1,4,C,memory-resp,#FFFFFF,#bf23d7,image405,10,image147,3,NA,left,left,TRUE,1739.5,image147,image405
11,1,4,C,retrieval,NA,NA,NA,NA,NA,NA,image147,NA,image90,FALSE,3228.7000000476837,image147,image90
11,1,4,C,retrieval,NA,NA,NA,NA,NA,NA,image292,NA,image292,TRUE,2641.600000023842,image292,image90
11,1,4,C,retrieval,NA,NA,NA,NA,NA,NA,image90,NA,image104,FALSE,2030,image90,image90
11,1,4,C,retrieval,NA,NA,NA,NA,NA,NA,image104,NA,image147,FALSE,3886.600000023842,image104,image90
11,1,5,C,memory-resp,#FFFFFF,#12d31c,image405,10,image118,13.6,NA,right,right,TRUE,1203.1000000238419,image118,image118
11,1,5,C,memory-resp,#1866b4,#FFFFFF,image14,1,image405,10,NA,right,left,FALSE,2309.600000023842,image14,image405
11,1,5,C,memory-resp,#FFFFFF,#773267,image405,10,image99,16.5,NA,right,right,TRUE,1817.5,image99,image99
11,1,5,C,memory-resp,#FFFFFF,#b67225,image405,10,image381,12,NA,right,right,TRUE,1452.3999999761581,image381,image381
11,1,5,C,retrieval,NA,NA,NA,NA,NA,NA,image99,NA,image99,TRUE,3406.7000000476837,image99,image118
11,1,5,C,retrieval,NA,NA,NA,NA,NA,NA,image381,NA,image216,FALSE,2001.4000000953674,image381,image118
11,1,5,C,retrieval,NA,NA,NA,NA,NA,NA,image118,NA,image229,FALSE,2288.600000023842,image118,image118
11,1,5,C,retrieval,NA,NA,NA,NA,NA,NA,image14,NA,image417,FALSE,2893.899999976158,image14,image118
11,1,6,C,memory-resp,#FFFFFF,#3b9e1a,image405,10,image153,40.3,NA,right,right,TRUE,1145.1000000238419,image153,image153
11,1,6,C,memory-resp,#FFFFFF,#851291,image405,10,image216,500,NA,right,right,TRUE,1268.2999999523163,image216,image216
11,1,6,C,memory-resp,#FFFFFF,#8e493e,image405,10,image325,12.6,NA,right,right,TRUE,1212.1999999284744,image325,image325
11,1,6,C,memory-resp,#0d87d9,#FFFFFF,image378,13,image405,10,NA,left,left,TRUE,1982.6999999284744,image378,image378
11,1,6,C,retrieval,NA,NA,NA,NA,NA,NA,image216,NA,image378,FALSE,2437.899999976158,image216,image153
11,1,6,C,retrieval,NA,NA,NA,NA,NA,NA,image153,NA,image325,FALSE,1342.1000000238419,image153,image153
11,1,6,C,retrieval,NA,NA,NA,NA,NA,NA,image378,NA,image216,FALSE,3489.399999976158,image378,image153
11,1,6,C,retrieval,NA,NA,NA,NA,NA,NA,image325,NA,image153,FALSE,1559.7000000476837,image325,image153
11,1,7,C,memory-resp,#FFFFFF,#3ab125,image405,10,image296,7,NA,left,right,FALSE,1660.7999999523163,image296,image405
11,1,7,C,memory-resp,#299099,#FFFFFF,image161,8.7,image405,10,NA,right,left,FALSE,2461.2999999523163,image161,image405
11,1,7,C,memory-resp,#FFFFFF,#ae4d24,image405,10,image1,7,NA,left,right,FALSE,2134.2000000476837,image1,image405
11,1,7,C,memory-resp,#9915b7,#FFFFFF,image165,6.6,image405,10,NA,right,NULL,FALSE,NA,image165,image405
11,1,7,C,retrieval,NA,NA,NA,NA,NA,NA,image165,NA,image165,TRUE,2330.4000000953674,image165,image405
11,1,7,C,retrieval,NA,NA,NA,NA,NA,NA,image1,NA,image1,TRUE,2245.2999999523163,image1,image405
11,1,7,C,retrieval,NA,NA,NA,NA,NA,NA,image296,NA,image38,FALSE,5879.5,image296,image405
11,1,7,C,retrieval,NA,NA,NA,NA,NA,NA,image161,NA,image161,TRUE,1214.5,image161,image405
11,1,8,C,memory-resp,#FFFFFF,#6c3f7d,image405,10,image247,999,NA,right,right,TRUE,1717.1000000238419,image247,image247
11,1,8,C,memory-resp,#FFFFFF,#257f24,image405,10,image397,0.5,NA,left,left,TRUE,2283.7999999523163,image397,image405
11,1,8,C,memory-resp,#29758e,#FFFFFF,image118,13.6,image405,10,NA,left,left,TRUE,1961.1999999284744,image118,image118
11,1,8,C,memory-resp,#FFFFFF,#c94b2c,image405,10,image254,140,NA,right,right,TRUE,1626.6000000238419,image254,image254
11,1,8,C,retrieval,NA,NA,NA,NA,NA,NA,image397,NA,image118,FALSE,4217.700000047684,image397,image247
11,1,8,C,retrieval,NA,NA,NA,NA,NA,NA,image118,NA,image397,FALSE,6147.199999928474,image118,image247
11,1,8,C,retrieval,NA,NA,NA,NA,NA,NA,image247,NA,image1,FALSE,6164.299999952316,image247,image247
11,1,8,C,retrieval,NA,NA,NA,NA,NA,NA,image254,NA,image254,TRUE,1538.3999999761581,image254,image247
11,1,9,C,memory-resp,#7413a4,#FFFFFF,image261,9.5,image405,10,NA,right,left,FALSE,2182.4000000953674,image261,image405
11,1,9,C,memory-resp,#ac5c2a,#FFFFFF,image199,7,image405,10,NA,right,left,FALSE,1848.7000000476837,image199,image405
11,1,9,C,memory-resp,#4c99a9,#FFFFFF,image35,999,image405,10,NA,left,left,TRUE,1476.8999999761581,image35,image35
11,1,9,C,memory-resp,#FFFFFF,#57a947,image405,10,image326,1.9,NA,left,right,FALSE,1901.2000000476837,image326,image405
11,1,9,C,retrieval,NA,NA,NA,NA,NA,NA,image261,NA,image261,TRUE,2076,image261,image405
11,1,9,C,retrieval,NA,NA,NA,NA,NA,NA,image326,NA,image326,TRUE,2572.899999976158,image326,image405
11,1,9,C,retrieval,NA,NA,NA,NA,NA,NA,image35,NA,image35,TRUE,3583.3000000715256,image35,image405
11,1,9,C,retrieval,NA,NA,NA,NA,NA,NA,image199,NA,image199,TRUE,1318.2000000476837,image199,image405
11,1,10,C,memory-resp,#FFFFFF,#3c359c,image405,10,image355,443.2,NA,right,right,TRUE,1704.2000000476837,image355,image355
11,1,10,C,memory-resp,#729041,#FFFFFF,image296,7,image405,10,NA,right,left,FALSE,1608.5,image296,image405
11,1,10,C,memory-resp,#b8426b,#FFFFFF,image388,350,image405,10,NA,left,left,TRUE,1418,image388,image388
11,1,10,C,memory-resp,#2d8b7d,#FFFFFF,image130,250,image405,10,NA,left,left,TRUE,1241.5,image130,image130
11,1,10,C,retrieval,NA,NA,NA,NA,NA,NA,image355,NA,image355,TRUE,3484.0999999046326,image355,image355
11,1,10,C,retrieval,NA,NA,NA,NA,NA,NA,image296,NA,image296,TRUE,1575.2999999523163,image296,image355
11,1,10,C,retrieval,NA,NA,NA,NA,NA,NA,image130,NA,image130,TRUE,2547,image130,image355
11,1,10,C,retrieval,NA,NA,NA,NA,NA,NA,image388,NA,image388,TRUE,1896.0999999046326,image388,image355
11,1,11,C,memory-resp,#6c1589,#FFFFFF,image272,35,image405,10,NA,left,left,TRUE,2004.7000000476837,image272,image272
11,1,11,C,memory-resp,#FFFFFF,#9f2d14,image405,10,image171,9.6,NA,left,right,FALSE,2147.7000000476837,image171,image405
11,1,11,C,memory-resp,#FFFFFF,#407533,image405,10,image332,12.2,NA,right,right,TRUE,2483.5,image332,image332
11,1,11,C,memory-resp,#396979,#FFFFFF,image412,10.5,image405,10,NA,left,NULL,FALSE,NA,image412,image412
11,1,11,C,retrieval,NA,NA,NA,NA,NA,NA,image332,NA,image332,TRUE,3082.3000000715256,image332,image272
11,1,11,C,retrieval,NA,NA,NA,NA,NA,NA,image272,NA,image272,TRUE,4855,image272,image272
11,1,11,C,retrieval,NA,NA,NA,NA,NA,NA,image171,NA,image171,TRUE,1824.3999999761581,image171,image272
11,1,11,C,retrieval,NA,NA,NA,NA,NA,NA,image412,NA,image412,TRUE,1468.2000000476837,image412,image272
11,1,12,C,memory-resp,#d81358,#FFFFFF,image285,240,image405,10,NA,left,left,TRUE,1299.6000000238419,image285,image285
11,1,12,C,memory-resp,#0dde8e,#FFFFFF,image263,5.4,image405,10,NA,right,left,FALSE,1002,image263,image405
11,1,12,C,memory-resp,#FFFFFF,#bad317,image405,10,image139,9.6,NA,left,right,FALSE,1526.4000000953674,image139,image405
11,1,12,C,memory-resp,#FFFFFF,#3f4583,image405,10,image360,19,NA,right,right,TRUE,1205,image360,image360
11,1,12,C,retrieval,NA,NA,NA,NA,NA,NA,image360,NA,image360,TRUE,1925.7999999523163,image360,image285
11,1,12,C,retrieval,NA,NA,NA,NA,NA,NA,image263,NA,image263,TRUE,3130.100000023842,image263,image285
11,1,12,C,retrieval,NA,NA,NA,NA,NA,NA,image285,NA,image285,TRUE,4213.600000023842,image285,image285
11,1,12,C,retrieval,NA,NA,NA,NA,NA,NA,image139,NA,image139,TRUE,1526.8000000715256,image139,image285
11,1,13,C,memory-resp,#FFFFFF,#152493,image405,10,image385,48,NA,right,right,TRUE,1065.1999999284744,image385,image385
11,1,13,C,memory-resp,#FFFFFF,#abab2b,image405,10,image50,8,NA,left,right,FALSE,1801.5,image50,image405
11,1,13,C,memory-resp,#FFFFFF,#b62569,image405,10,image18,18,NA,right,right,TRUE,1385.2999999523163,image18,image18
11,1,13,C,memory-resp,#FFFFFF,#20835c,image405,10,image236,11,NA,right,right,TRUE,1149.6999999284744,image236,image236
11,1,13,C,retrieval,NA,NA,NA,NA,NA,NA,image18,NA,image50,FALSE,1833.2999999523163,image18,image385
11,1,13,C,retrieval,NA,NA,NA,NA,NA,NA,image50,NA,image236,FALSE,8015.299999952316,image50,image385
11,1,13,C,retrieval,NA,NA,NA,NA,NA,NA,image236,NA,image18,FALSE,2460.399999976158,image236,image385
11,1,13,C,retrieval,NA,NA,NA,NA,NA,NA,image385,NA,image385,TRUE,1297.3999999761581,image385,image385
11,1,14,C,memory-resp,#FFFFFF,#cd2c1d,image405,10,image139,9.6,NA,left,NULL,FALSE,NA,image139,image405
11,1,14,C,memory-resp,#5c0ea4,#FFFFFF,image110,8,image405,10,NA,right,NULL,FALSE,NA,image110,image405
11,1,14,C,memory-resp,#1d9187,#FFFFFF,image209,5.5,image405,10,NA,right,NULL,FALSE,NA,image209,image405
11,1,14,C,memory-resp,#FFFFFF,#6cb63e,image405,10,image42,100,NA,right,right,TRUE,1207.6000000238419,image42,image42
11,1,14,C,retrieval,NA,NA,NA,NA,NA,NA,image139,NA,image139,TRUE,2633.3000000715256,image139,image405
11,1,14,C,retrieval,NA,NA,NA,NA,NA,NA,image42,NA,image209,FALSE,1554.3999999761581,image42,image405
11,1,14,C,retrieval,NA,NA,NA,NA,NA,NA,image209,NA,image110,FALSE,5378.799999952316,image209,image405
11,1,14,C,retrieval,NA,NA,NA,NA,NA,NA,image110,NA,image26,FALSE,1301.8999999761581,image110,image405
11,1,15,C,memory-resp,#FFFFFF,#11b624,image405,10,image333,13.2,NA,right,right,TRUE,1350.0999999046326,image333,image333
11,1,15,C,memory-resp,#FFFFFF,#980b69,image405,10,image266,1.5,NA,left,left,TRUE,2127.899999976158,image266,image405
11,1,15,C,memory-resp,#7d6931,#FFFFFF,image47,12,image405,10,NA,left,left,TRUE,1517,image47,image47
11,1,15,C,memory-resp,#4054b0,#FFFFFF,image186,999,image405,10,NA,left,left,TRUE,1248.6000000238419,image186,image186
11,1,15,C,retrieval,NA,NA,NA,NA,NA,NA,image47,NA,image266,FALSE,5882.5,image47,image333
11,1,15,C,retrieval,NA,NA,NA,NA,NA,NA,image333,NA,image333,TRUE,1705,image333,image333
11,1,15,C,retrieval,NA,NA,NA,NA,NA,NA,image186,NA,image186,TRUE,2448,image186,image333
11,1,15,C,retrieval,NA,NA,NA,NA,NA,NA,image266,NA,image47,FALSE,1689.1000000238419,image266,image333
11,2,P1,B,processing,#FFFFFF,#818b3c,image405,10,image276,90,NA,left,left,TRUE,971.2000000476837,NA,NA
11,2,P1,B,processing,#FFFFFF,#45b080,image405,10,image344,4,NA,left,left,TRUE,923.5,NA,NA
11,2,P1,B,processing,#FFFFFF,#474695,image405,10,image81,2.7,NA,left,left,TRUE,912,NA,NA
11,2,P1,B,processing,#FFFFFF,#97203a,image405,10,image394,10,NA,left,left,TRUE,935.5,NA,NA
11,2,P2,B,processing,#FFFFFF,#2a8951,image405,10,image358,16.2,NA,left,left,TRUE,1041.4000000953674,NA,NA
11,2,P2,B,processing,#cdd624,#FFFFFF,image25,40,image405,10,NA,right,right,TRUE,952.2999999523163,NA,NA
11,2,P2,B,processing,#FFFFFF,#130d91,image405,10,image244,65,NA,left,left,TRUE,906.2000000476837,NA,NA
11,2,P2,B,processing,#9d0b52,#FFFFFF,image13,15,image405,10,NA,right,right,TRUE,942.1999999284744,NA,NA
11,2,P3,B,processing,#27afc4,#FFFFFF,image299,300,image405,10,NA,right,right,TRUE,457.7999999523163,NA,NA
11,2,P3,B,processing,#893ebb,#FFFFFF,image218,13.5,image405,10,NA,right,right,TRUE,439.89999997615814,NA,NA
11,2,P3,B,processing,#FFFFFF,#774137,image405,10,image380,30.8,NA,left,left,TRUE,508.89999997615814,NA,NA
11,2,P3,B,processing,#FFFFFF,#57ac15,image405,10,image334,25,NA,left,left,TRUE,438.89999997615814,NA,NA
11,2,P4,B,processing,#FFFFFF,#39248f,image405,10,image251,10,NA,left,left,TRUE,417.1999999284744,NA,NA
11,2,P4,B,processing,#FFFFFF,#b0cf17,image405,10,image201,20,NA,left,left,TRUE,460.89999997615814,NA,NA
11,2,P4,B,processing,#941e57,#FFFFFF,image43,18,image405,10,NA,right,right,TRUE,495.5,NA,NA
11,2,P4,B,processing,#FFFFFF,#34bc9a,image405,10,image143,72,NA,left,left,TRUE,483.39999997615814,NA,NA
11,2,P5,B,processing,#FFFFFF,#b9d91c,image405,10,image402,30,NA,left,left,TRUE,486.1999999284744,NA,NA
11,2,P5,B,processing,#FFFFFF,#48198f,image405,10,image30,19.4,NA,left,left,TRUE,452.39999997615814,NA,NA
11,2,P5,B,processing,#FFFFFF,#4aa191,image405,10,image96,180,NA,left,left,TRUE,515.8000000715256,NA,NA
11,2,P5,B,processing,#ca2151,#FFFFFF,image356,5.5,image405,10,NA,right,right,TRUE,453.2000000476837,NA,NA
11,2,P6,B,processing,#FFFFFF,#448362,image405,10,image78,999,NA,left,left,TRUE,745.2999999523163,NA,NA
11,2,P6,B,processing,#FFFFFF,#1b32de,image405,10,image234,24,NA,left,left,TRUE,499.2000000476837,NA,NA
11,2,P6,B,processing,#9b9917,#FFFFFF,image197,999,image405,10,NA,right,right,TRUE,474.6999999284744,NA,NA
11,2,P6,B,processing,#ac116b,#FFFFFF,image5,27.1,image405,10,NA,right,right,TRUE,457.8000000715256,NA,NA
11,2,P7,B,processing,#80d624,#FFFFFF,image263,5.4,image405,10,NA,right,right,TRUE,474.60000002384186,NA,NA
11,2,P7,B,processing,#452d71,#FFFFFF,image105,7.1,image405,10,NA,right,right,TRUE,413.7000000476837,NA,NA
11,2,P7,B,processing,#499286,#FFFFFF,image253,50,image405,10,NA,right,right,TRUE,418.10000002384186,NA,NA
11,2,P7,B,processing,#FFFFFF,#901d1f,image405,10,image251,10,NA,left,left,TRUE,523.6000000238419,NA,NA
11,2,P8,B,processing,#FFFFFF,#be4937,image405,10,image308,0.8,NA,left,left,TRUE,466.2999999523163,NA,NA
11,2,P8,B,processing,#86388a,#FFFFFF,image172,8,image405,10,NA,right,right,TRUE,494.60000002384186,NA,NA
11,2,P8,B,processing,#206688,#FFFFFF,image49,20,image405,10,NA,right,right,TRUE,527.6000000238419,NA,NA
11,2,P8,B,processing,#FFFFFF,#4ba621,image405,10,image61,6,NA,left,left,TRUE,603.2999999523163,NA,NA
11,2,P9,B,processing,#FFFFFF,#c2bd1e,image405,10,image355,443.2,NA,left,left,TRUE,537.8999999761581,NA,NA
11,2,P9,B,processing,#FFFFFF,#853d63,image405,10,image182,800,NA,left,left,TRUE,443.6999999284744,NA,NA
11,2,P9,B,processing,#201e8f,#FFFFFF,image165,6.6,image405,10,NA,right,right,TRUE,446.39999997615814,NA,NA
11,2,P9,B,processing,#FFFFFF,#3bb081,image405,10,image276,90,NA,left,left,TRUE,458.7000000476837,NA,NA
11,2,P10,B,processing,#FFFFFF,#975d49,image405,10,image28,10,NA,left,left,TRUE,498.2999999523163,NA,NA
11,2,P10,B,processing,#0d8f96,#FFFFFF,image347,999,image405,10,NA,right,right,TRUE,539.1999999284744,NA,NA
11,2,P10,B,processing,#578e3e,#FFFFFF,image52,800,image405,10,NA,right,right,TRUE,468.2999999523163,NA,NA
11,2,P10,B,processing,#7a3bba,#FFFFFF,image238,120,image405,10,NA,right,right,TRUE,435.8000000715256,NA,NA
11,2,P11,B,processing,#FFFFFF,#169ba2,image405,10,image145,10,NA,left,left,TRUE,530.4000000953674,NA,NA
11,2,P11,B,processing,#FFFFFF,#410b98,image405,10,image286,270,NA,left,left,TRUE,460.10000002384186,NA,NA
11,2,P11,B,processing,#57a20b,#FFFFFF,image395,8.2,image405,10,NA,right,right,TRUE,481.39999997615814,NA,NA
11,2,P11,B,processing,#862336,#FFFFFF,image320,170,image405,10,NA,right,right,TRUE,454.89999997615814,NA,NA
11,2,P12,B,processing,#a28a39,#FFFFFF,image10,10,image405,10,NA,right,right,TRUE,487.39999997615814,NA,NA
11,2,P12,B,processing,#c52bae,#FFFFFF,image211,21.3,image405,10,NA,right,right,TRUE,448.8000000715256,NA,NA
11,2,P12,B,processing,#4959a7,#FFFFFF,image126,11,image405,10,NA,right,right,TRUE,471.59999990463257,NA,NA
11,2,P12,B,processing,#FFFFFF,#19e148,image405,10,image139,9.6,NA,left,left,TRUE,456.60000002384186,NA,NA
11,2,P13,B,processing,#72365f,#FFFFFF,image44,10,image405,10,NA,right,right,TRUE,466.2999999523163,NA,NA
11,2,P13,B,processing,#FFFFFF,#1cc465,image405,10,image53,6.4,NA,left,left,TRUE,566,NA,NA
11,2,P13,B,processing,#FFFFFF,#7d7c40,image405,10,image228,250,NA,left,left,TRUE,518.5,NA,NA
11,2,P13,B,processing,#FFFFFF,#232d7b,image405,10,image360,19,NA,left,left,TRUE,520.6000000238419,NA,NA
11,2,P14,B,processing,#1e997b,#FFFFFF,image27,6,image405,10,NA,right,right,TRUE,555.1999999284744,NA,NA
11,2,P14,B,processing,#a6b011,#FFFFFF,image182,800,image405,10,NA,right,right,TRUE,491.10000002384186,NA,NA
11,2,P14,B,processing,#FFFFFF,#924f5d,image405,10,image226,70.2,NA,left,left,TRUE,490.6999999284744,NA,NA
11,2,P14,B,processing,#FFFFFF,#2f0d8c,image405,10,image104,6,NA,left,left,TRUE,508.40000009536743,NA,NA
11,2,P15,B,processing,#a7256d,#FFFFFF,image228,250,image405,10,NA,right,right,TRUE,707.6000000238419,NA,NA
11,2,P15,B,processing,#cfa717,#FFFFFF,image230,999,image405,10,NA,right,right,TRUE,502.10000002384186,NA,NA
11,2,P15,B,processing,#FFFFFF,#545ba0,image405,10,image202,2.9,NA,left,left,TRUE,551.6999999284744,NA,NA
11,2,P15,B,processing,#30bb4e,#FFFFFF,image235,3.5,image405,10,NA,right,right,TRUE,438,NA,NA
11,2,P16,B,processing,#FFFFFF,#394984,image405,10,image42,100,NA,left,left,TRUE,586.6999999284744,NA,NA
11,2,P16,B,processing,#FFFFFF,#ac1689,image405,10,image232,180,NA,left,left,TRUE,512.9000000953674,NA,NA
11,2,P16,B,processing,#786b3b,#FFFFFF,image359,11,image405,10,NA,right,right,TRUE,415.8000000715256,NA,NA
11,2,P16,B,processing,#26733e,#FFFFFF,image185,10.1,image405,10,NA,right,right,TRUE,567.8999999761581,NA,NA
11,2,P17,B,processing,#FFFFFF,#892a6f,image405,10,image8,96,NA,left,left,TRUE,493.10000002384186,NA,NA
11,2,P17,B,processing,#262bb5,#FFFFFF,image377,8.7,image405,10,NA,right,right,TRUE,560.5999999046326,NA,NA
11,2,P17,B,processing,#958a41,#FFFFFF,image388,350,image405,10,NA,right,right,TRUE,424.2999999523163,NA,NA
11,2,P17,B,processing,#1fbd6b,#FFFFFF,image167,17.4,image405,10,NA,right,right,TRUE,553.1000000238419,NA,NA
11,2,P18,B,processing,#4ca9a1,#FFFFFF,image429,40,image405,10,NA,right,right,TRUE,804,NA,NA
11,2,P18,B,processing,#FFFFFF,#a5e411,image405,10,image263,5.4,NA,left,left,TRUE,546.7999999523163,NA,NA
11,2,P18,B,processing,#8f3242,#FFFFFF,image385,48,image405,10,NA,right,right,TRUE,444.89999997615814,NA,NA
11,2,P18,B,processing,#FFFFFF,#3513dd,image405,10,image34,210,NA,left,left,TRUE,510.8000000715256,NA,NA
11,2,P19,B,processing,#FFFFFF,#2a9cc6,image405,10,image416,400,NA,left,left,TRUE,533.7000000476837,NA,NA
11,2,P19,B,processing,#bd3b0f,#FFFFFF,image208,11,image405,10,NA,right,right,TRUE,548.1000000238419,NA,NA
11,2,P19,B,processing,#FFFFFF,#8842b3,image405,10,image7,3,NA,left,left,TRUE,527.6000000238419,NA,NA
11,2,P19,B,processing,#FFFFFF,#6b9640,image405,10,image79,170,NA,left,left,TRUE,521.2000000476837,NA,NA
11,2,P20,B,processing,#48a41e,#FFFFFF,image331,1.7,image405,10,NA,right,right,TRUE,565.1000000238419,NA,NA
11,2,P20,B,processing,#af6946,#FFFFFF,image27,6,image405,10,NA,right,right,TRUE,440.89999997615814,NA,NA
