participant,blockID,trialID,condition,screenID,leftColor,rightColor,leftImage,leftSize,rightImage,rightSize,correctObject,correctResp,response,acc,rt,target,distractor
27,1,P1,C,processing,#4b9e1f,#FFFFFF,image312,20.5,image405,10,NA,left,NULL,FALSE,NA,NA,NA
27,1,P1,C,processing,#FFFFFF,#37bac3,image405,10,image412,10.5,NA,left,right,FALSE,2194.89999999851,NA,NA
27,1,P1,C,processing,#a03613,#FFFFFF,image38,6.5,image405,10,NA,left,right,FALSE,2483.60000000149,NA,NA
27,1,P1,C,processing,#FFFFFF,#9920d9,image405,10,image230,999,NA,right,right,TRUE,2468.300000000745,NA,NA
27,1,P2,C,processing,#549e4c,#FFFFFF,image100,9,image405,10,NA,left,left,TRUE,1770.3999999985099,NA,NA
27,1,P2,C,processing,#FFFFFF,#a22f98,image405,10,image113,210,NA,right,right,TRUE,1974.0999999977648,NA,NA
27,1,P2,C,processing,#FFFFFF,#0b6da2,image405,10,image427,40,NA,right,right,TRUE,1723.300000000745,NA,NA
27,1,P2,C,processing,#FFFFFF,#bd5814,image405,10,image158,150,NA,right,right,TRUE,1480,NA,NA
27,1,P3,C,processing,#FFFFFF,#6810a8,image405,10,image145,10,NA,right,right,TRUE,1523.8999999985099,NA,NA
27,1,P3,C,processing,#FFFFFF,#63c436,image405,10,image301,300,NA,right,right,TRUE,1832.199999999255,NA,NA
27,1,P3,C,processing,#c13a25,#FFFFFF,image211,21.3,image405,10,NA,left,left,TRUE,1637.7999999970198,NA,NA
27,1,P3,C,processing,#4d8c8f,#FFFFFF,image148,30,image405,10,NA,left,left,TRUE,992.1999999992549,NA,NA
27,1,P4,C,processing,#955091,#FFFFFF,image265,9.6,image405,10,NA,left,left,TRUE,1859.5999999977648,NA,NA
27,1,P4,C,processing,#34743f,#FFFFFF,image218,13.5,image405,10,NA,right,left,FALSE,1541.5,NA,NA
27,1,P4,C,processing,#FFFFFF,#b06b21,image405,10,image382,23.2,NA,right,right,TRUE,1501.0999999977648,NA,NA
27,1,P4,C,processing,#FFFFFF,#29508e,image405,10,image379,15,NA,left,right,FALSE,1825.1000000014901,NA,NA
27,1,P5,C,processing,#c34522,#FFFFFF,image93,1.5,image405,10,NA,right,left,FALSE,1717.300000000745,NA,NA
27,1,P5,C,processing,#4fce2c,#FFFFFF,image226,70.2,image405,10,NA,left,left,TRUE,1654.199999999255,NA,NA
27,1,P5,C,processing,#1a5c7f,#FFFFFF,image54,7,image405,10,NA,left,left,TRUE,1513.8999999985099,NA,NA
27,1,P5,C,processing,#7b2999,#FFFFFF,image326,1.9,image405,10,NA,right,right,TRUE,2186.10000000149,NA,NA
27,1,P6,C,processing,#0e838b,#FFFFFF,image317,3,image405,10,NA,right,left,FALSE,1464.5,NA,NA
27,1,P6,C,processing,#5d3088,#FFFFFF,image349,5.8,image405,10,NA,left,left,TRUE,1425.300000000745,NA,NA
27,1,P6,C,processing,#58753e,#FFFFFF,image62,7.5,image405,10,NA,left,left,TRUE,1992.0999999977648,NA,NA
27,1,P6,C,processing,#aa1322,#FFFFFF,image342,100,image405,10,NA,left,left,TRUE,1529.3999999985099,NA,NA
27,1,P7,C,processing,#c030a1,#FFFFFF,image167,17.4,image405,10,NA,right,left,FALSE,1287.5,NA,NA
27,1,P7,C,processing,#caa70c,#FFFFFF,image394,10,image405,10,NA,right,left,FALSE,1459.7999999970198,NA,NA
27,1,P7,C,processing,#465391,#FFFFFF,image297,7.9,image405,10,NA,left,left,TRUE,1289.0999999977648,NA,NA
27,1,P7,C,processing,#1e8a44,#FFFFFF,image375,8,image405,10,NA,left,left,TRUE,1354.699999999255,NA,NA
27,1,P8,C,processing,#82a654,#FFFFFF,image89,35,image405,10,NA,left,left,TRUE,1347.8999999985099,NA,NA
27,1,P8,C,processing,#FFFFFF,#34a8a4,image405,10,image101,180,NA,right,right,TRUE,1433.8999999985099,NA,NA
27,1,P8,C,processing,#3818a0,#FFFFFF,image22,9.1,image405,10,NA,left,left,TRUE,1096.199999999255,NA,NA
27,1,P8,C,processing,#FFFFFF,#c33739,image405,10,image419,150,NA,right,right,TRUE,1124.5,NA,NA
27,1,P9,C,processing,#FFFFFF,#c2e10e,image405,10,image50,8,NA,right,right,TRUE,1050.2999999970198,NA,NA
27,1,P9,C,processing,#26c087,#FFFFFF,image236,11,image405,10,NA,right,left,FALSE,1765,NA,NA
27,1,P9,C,processing,#130c8d,#FFFFFF,image123,4.8,image405,10,NA,right,left,FALSE,1881.4000000022352,NA,NA
27,1,P9,C,processing,#FFFFFF,#b5406d,image405,10,image373,17.5,NA,left,right,FALSE,1645.8999999985099,NA,NA
27,1,P10,C,processing,#9ba130,#FFFFFF,image112,13,image405,10,NA,right,left,FALSE,1245.699999999255,NA,NA
27,1,P10,C,processing,#FFFFFF,#a92376,image405,10,image173,999,NA,right,right,TRUE,1545.1000000014901,NA,NA
27,1,P10,C,processing,#FFFFFF,#312c9b,image405,10,image293,60.2,NA,right,right,TRUE,1402.4000000022352,NA,NA
27,1,P10,C,processing,#13ae4a,#FFFFFF,image174,999,image405,10,NA,left,left,TRUE,1477.8999999985099,NA,NA
27,1,P11,C,processing,#53a281,#FFFFFF,image136,33,image405,10,NA,left,left,TRUE,1457.1000000014901,NA,NA
27,1,P11,C,processing,#b52c70,#FFFFFF,image389,4.8,image405,10,NA,right,right,TRUE,2132.900000002235,NA,NA
27,1,P11,C,processing,#0f1899,#FFFFFF,image344,4,image405,10,NA,right,left,FALSE,1451.800000000745,NA,NA
27,1,P11,C,processing,#FFFFFF,#a4bc1a,image405,10,image58,12,NA,left,left,TRUE,1618,NA,NA
27,1,P12,C,processing,#FFFFFF,#257456,image405,10,image138,2,NA,left,right,FALSE,1444.3999999985099,NA,NA
27,1,P12,C,processing,#818e3e,#FFFFFF,image193,85,image405,10,NA,left,left,TRUE,983,NA,NA
27,1,P12,C,processing,#FFFFFF,#943356,image405,10,image313,10,NA,right,right,TRUE,1203.9000000022352,NA,NA
27,1,P12,C,processing,#FFFFFF,#3310e5,image405,10,image115,9.4,NA,right,right,TRUE,1495.9000000022352,NA,NA
27,1,P13,C,processing,#b52c63,#FFFFFF,image42,100,image405,10,NA,left,left,TRUE,1368,NA,NA
27,1,P13,C,processing,#FFFFFF,#318160,image405,10,image308,0.8,NA,left,right,FALSE,1365.300000000745,NA,NA
27,1,P13,C,processing,#FFFFFF,#180fd2,image405,10,image290,8.5,NA,right,right,TRUE,1359.4000000022352,NA,NA
27,1,P13,C,processing,#FFFFFF,#9aa550,image405,10,image189,400,NA,right,right,TRUE,1953.300000000745,NA,NA
27,1,P14,C,processing,#FFFFFF,#2d8712,image405,10,image325,12.6,NA,left,right,FALSE,1213.5999999977648,NA,NA
27,1,P14,C,processing,#27748b,#FFFFFF,image91,230,image405,10,NA,left,left,TRUE,1227.3999999985099,NA,NA
27,1,P14,C,processing,#FFFFFF,#a44323,image405,10,image207,24,NA,right,right,TRUE,1167.800000000745,NA,NA
27,1,P14,C,processing,#FFFFFF,#961edc,image405,10,image361,26.5,NA,right,right,TRUE,1918.5,NA,NA
27,1,P15,C,processing,#367c42,#FFFFFF,image30,19.4,image405,10,NA,right,left,FALSE,1845.300000000745,NA,NA
27,1,P15,C,processing,#FFFFFF,#ad742e,image405,10,image328,40,NA,right,right,TRUE,1211.1000000014901,NA,NA
27,1,P15,C,processing,#FFFFFF,#bc20a7,image405,10,image81,2.7,NA,left,right,FALSE,1202.9000000022352,NA,NA
27,1,P15,C,processing,#FFFFFF,#394b6a,image405,10,image140,2,NA,left,right,FALSE,1607.199999999255,NA,NA
27,1,P16,C,processing,#FFFFFF,#6113cd,image405,10,image347,999,NA,right,right,TRUE,1031.3999999985099,NA,NA
27,1,P16,C,processing,#FFFFFF,#37a9a2,image405,10,image390,36.8,NA,right,right,TRUE,1072.300000000745,NA,NA
27,1,P16,C,processing,#5e8542,#FFFFFF,image320,170,image405,10,NA,left,left,TRUE,1383.800000000745,NA,NA
27,1,P16,C,processing,#b63735,#FFFFFF,image20,4.5,image405,10,NA,right,right,TRUE,2646.300000000745,NA,NA
27,1,P17,C,processing,#FFFFFF,#42861d,image405,10,image215,153,NA,right,right,TRUE,1285.0999999977648,NA,NA
27,1,P17,C,processing,#99280f,#FFFFFF,image78,999,image405,10,NA,left,right,FALSE,2053.2999999970198,NA,NA
27,1,P17,C,processing,#FFFFFF,#438ea3,image405,10,image272,35,NA,right,right,TRUE,1590.8999999985099,NA,NA
27,1,P17,C,processing,#FFFFFF,#6d258e,image405,10,image243,27.1,NA,right,right,TRUE,1155.8999999985099,NA,NA
27,1,P18,C,processing,#b113b4,#FFFFFF,image130,250,image405,10,NA,left,left,TRUE,1175.0999999977648,NA,NA
27,1,P18,C,processing,#3e773c,#FFFFFF,image160,0.7,image405,10,NA,right,left,FALSE,941.5,NA,NA
27,1,P18,C,processing,#6a4234,#FFFFFF,image399,9,image405,10,NA,left,left,TRUE,1187.7999999970198,NA,NA
27,1,P18,C,processing,#2c659b,#FFFFFF,image111,8,image405,10,NA,left,left,TRUE,2504.10000000149,NA,NA
27,1,P19,C,processing,#FFFFFF,#3b468c,image405,10,image321,40,NA,right,right,TRUE,1324.5,NA,NA
27,1,P19,C,processing,#d11553,#FFFFFF,image400,42,image405,10,NA,left,left,TRUE,1112.199999999255,NA,NA
27,1,P19,C,processing,#9fae3d,#FFFFFF,image38,6.5,image405,10,NA,left,left,TRUE,1973.5999999977648,NA,NA
27,1,P19,C,processing,#FFFFFF,#1f7f5c,image405,10,image28,10,NA,right,left,FALSE,2271,NA,NA
27,1,P20,C,processing,#FFFFFF,#9c663a,image405,10,image143,72,NA,right,right,TRUE,1157.2999999970198,NA,NA
27,1,P20,C,processing,#FFFFFF,#3bab3b,image405,10,image321,40,NA,right,right,TRUE,851.6000000014901,NA,NA
27,1,P20,C,processing,#FFFFFF,#c610bd,image405,10,image34,210,NA,right,left,FALSE,2391.199999999255,NA,NA
27,1,P20,C,processing,#FFFFFF,#1e4b7b,image405,10,image245,10.5,NA,left,right,FALSE,2235.400000002235,NA,NA
27,1,P21,C,processing,#FFFFFF,#a25398,image405,10,image157,95,NA,right,right,TRUE,1393.699999999255,NA,NA
27,1,P21,C,processing,#9f6314,#FFFFFF,image298,12.4,image405,10,NA,right,left,FALSE,1303.8999999985099,NA,NA
27,1,P21,C,processing,#1d34b4,#FFFFFF,image260,999,image405,10,NA,left,left,TRUE,1117.5,NA,NA
27,1,P21,C,processing,#2e7a37,#FFFFFF,image150,17.7,image405,10,NA,right,left,FALSE,821.1999999992549,NA,NA
27,1,P22,C,processing,#FFFFFF,#c81ea0,image405,10,image119,0.4,NA,left,right,FALSE,2437.89999999851,NA,NA
27,1,P22,C,processing,#124991,#FFFFFF,image305,0.2,image405,10,NA,right,right,TRUE,1814.6000000014901,NA,NA
27,1,P22,C,processing,#FFFFFF,#ca8816,image405,10,image320,170,NA,right,right,TRUE,1409.3999999985099,NA,NA
27,1,P22,C,processing,#2a743e,#FFFFFF,image362,24.2,image405,10,NA,left,left,TRUE,1036.1000000014901,NA,NA
27,1,P23,C,processing,#FFFFFF,#3d8f24,image405,10,image171,9.6,NA,right,right,TRUE,1661.300000000745,NA,NA
27,1,P23,C,processing,#FFFFFF,#ad6143,image405,10,image105,7.1,NA,right,right,TRUE,1414.0999999977648,NA,NA
27,1,P23,C,processing,#FFFFFF,#864d99,image405,10,image152,180,NA,right,right,TRUE,841.9000000022352,NA,NA
27,1,P23,C,processing,#FFFFFF,#375868,image405,10,image176,170,NA,right,right,TRUE,880.2000000029802,NA,NA
27,1,P24,C,processing,#290a8f,#FFFFFF,image99,16.5,image405,10,NA,right,left,FALSE,1381.5,NA,NA
27,1,P24,C,processing,#1db988,#FFFFFF,image326,1.9,image405,10,NA,right,right,TRUE,2184.099999997765,NA,NA
27,1,P24,C,processing,#854765,#FFFFFF,image325,12.6,image405,10,NA,right,left,FALSE,1159.5,NA,NA
27,1,P24,C,processing,#8f9c1c,#FFFFFF,image180,14,image405,10,NA,right,left,FALSE,856.6999999992549,NA,NA
27,1,P25,C,processing,#FFFFFF,#4c46aa,image405,10,image19,8,NA,right,right,TRUE,1718.0999999977648,NA,NA
27,1,P25,C,processing,#FFFFFF,#96b734,image405,10,image261,9.5,NA,right,right,TRUE,871.5,NA,NA
27,1,P25,C,processing,#FFFFFF,#2c7260,image405,10,image120,450,NA,right,right,TRUE,1299.7000000029802,NA,NA
27,1,P25,C,processing,#95465e,#FFFFFF,image93,1.5,image405,10,NA,right,left,FALSE,1389.5,NA,NA
27,1,1,C,memory-resp,#5d9b31,#FFFFFF,image22,9.1,image405,10,NA,left,left,TRUE,1626.199999999255,image22,image22
27,1,1,C,memory-resp,#FFFFFF,#532c72,image405,10,image317,3,NA,left,right,FALSE,1110.8999999985099,image317,image405
27,1,1,C,memory-resp,#FFFFFF,#387a94,image405,10,image305,0.2,NA,left,right,FALSE,1691.1000000014901,image305,image405
27,1,1,C,memory-resp,#FFFFFF,#71412d,image405,10,image7,3,NA,left,right,FALSE,1687.4000000022352,image7,image405
27,1,1,C,retrieval,NA,NA,NA,NA,NA,NA,image305,NA,image305,TRUE,3328.800000000745,image305,image22
27,1,1,C,retrieval,NA,NA,NA,NA,NA,NA,image22,NA,image317,FALSE,6962.39999999851,image22,image22
27,1,1,C,retrieval,NA,NA,NA,NA,NA,NA,image317,NA,image22,FALSE,4398,image317,image22
27,1,1,C,retrieval,NA,NA,NA,NA,NA,NA,image7,NA,image7,TRUE,954.5999999977648,image7,image22
27,1,2,C,memory-resp,#4131b4,#FFFFFF,image16,999,image405,10,NA,left,left,TRUE,2688.7000000029802,image16,image16
27,1,2,C,memory-resp,#a6ae0f,#FFFFFF,image64,960,image405,10,NA,left,left,TRUE,2644.10000000149,image64,image64
27,1,2,C,memory-resp,#FFFFFF,#3c7265,image405,10,image96,180,NA,right,right,TRUE,2932.89999999851,image96,image96
27,1,2,C,memory-resp,#b82867,#FFFFFF,image125,5.1,image405,10,NA,left,left,TRUE,1361.199999999255,image125,image125
27,1,2,C,retrieval,NA,NA,NA,NA,NA,NA,image64,NA,image64,TRUE,2916.5,image64,image16
27,1,2,C,retrieval,NA,NA,NA,NA,NA,NA,image125,NA,image125,TRUE,1946.0999999977648,image125,image16
27,1,2,C,retrieval,NA,NA,NA,NA,NA,NA,image16,NA,image16,TRUE,6637.699999999255,image16,image16
27,1,2,C,retrieval,NA,NA,NA,NA,NA,NA,image96,NA,image96,TRUE,4617.800000000745,image96,image16
27,1,3,C,memory-resp,#d95112,#FFFFFF,image134,7,image405,10,NA,left,left,TRUE,1753.3999999985099,image134,image134
27,1,3,C,memory-resp,#6ba34d,#FFFFFF,image197,999,image405,10,NA,left,left,TRUE,2138.39999999851,image197,image197
27,1,3,C,memory-resp,#FFFFFF,#8d319b,image405,10,image38,6.5,NA,right,right,TRUE,1599.5,image38,image38
27,1,3,C,memory-resp,#FFFFFF,#497da7,image405,10,image413,153,NA,right,right,TRUE,1268.1000000014901,image413,image413
27,1,3,C,retrieval,NA,NA,NA,NA,NA,NA,image197,NA,image52,FALSE,2382.199999999255,image197,image134
27,1,3,C,retrieval,NA,NA,NA,NA,NA,NA,image38,NA,image38,TRUE,1974.6000000014901,image38,image134
27,1,3,C,retrieval,NA,NA,NA,NA,NA,NA,image134,NA,image134,TRUE,1678.300000000745,image134,image134
27,1,3,C,retrieval,NA,NA,NA,NA,NA,NA,image413,NA,image413,TRUE,4198.699999999255,image413,image134
27,1,4,C,memory-resp,#ce0d71,#FFFFFF,image189,400,image405,10,NA,left,left,TRUE,1683.5,image189,image189
27,1,4,C,memory-resp,#FFFFFF,#575aa2,image405,10,image234,24,NA,right,right,TRUE,2030.8999999985099,image234,image234
27,1,4,C,memory-resp,#FFFFFF,#2e6b49,image405,10,image313,10,NA,right,right,TRUE,1382.4000000022352,image313,image313
27,1,4,C,memory-resp,#abb92d,#FFFFFF,image187,300,image405,10,NA,left,left,TRUE,1433,image187,image187
27,1,4,C,retrieval,NA,NA,NA,NA,NA,NA,image187,NA,image187,TRUE,2129.800000000745,image187,image189
27,1,4,C,retrieval,NA,NA,NA,NA,NA,NA,image189,NA,image189,TRUE,2269.2000000029802,image189,image189
27,1,4,C,retrieval,NA,NA,NA,NA,NA,NA,image234,NA,image234,TRUE,2706.199999999255,image234,image189
27,1,4,C,retrieval,NA,NA,NA,NA,NA,NA,image313,NA,image313,TRUE,2242.400000002235,image313,image189
27,1,5,C,memory-resp,#FFFFFF,#891568,image405,10,image351,450,NA,right,right,TRUE,2201.199999999255,image351,image351
27,1,5,C,memory-resp,#344ea2,#FFFFFF,image364,4.2,image405,10,NA,right,left,FALSE,2302.400000002235,image364,image405
27,1,5,C,memory-resp,#15b251,#FFFFFF,image355,443.2,image405,10,NA,left,left,TRUE,1646.5,image355,image355
27,1,5,C,memory-resp,#FFFFFF,#cfcf2a,image405,10,image223,170,NA,right,right,TRUE,1355.199999999255,image223,image223
27,1,5,C,retrieval,NA,NA,NA,NA,NA,NA,image364,NA,image355,FALSE,2750.199999999255,image364,image351
27,1,5,C,retrieval,NA,NA,NA,NA,NA,NA,image355,NA,image215,FALSE,5347.800000000745,image355,image351
27,1,5,C,retrieval,NA,NA,NA,NA,NA,NA,image351,NA,image197,FALSE,4073.199999999255,image351,image351
27,1,5,C,retrieval,NA,NA,NA,NA,NA,NA,image223,NA,image215,FALSE,1853.9000000022352,image223,image351
27,1,6,C,memory-resp,#FFFFFF,#2990bc,image405,10,image72,3,NA,left,right,FALSE,1430.6000000014901,image72,image405
27,1,6,C,memory-resp,#9d4d25,#FFFFFF,image257,170,image405,10,NA,left,left,TRUE,1037,image257,image257
27,1,6,C,memory-resp,#507e3e,#FFFFFF,image25,40,image405,10,NA,left,left,TRUE,805.5,image25,image25
27,1,6,C,memory-resp,#FFFFFF,#7e3e84,image405,10,image360,19,NA,left,right,FALSE,1223,image360,image405
27,1,6,C,retrieval,NA,NA,NA,NA,NA,NA,image72,NA,image257,FALSE,6592.199999999255,image72,image405
27,1,6,C,retrieval,NA,NA,NA,NA,NA,NA,image257,NA,image257,TRUE,878.5,image257,image405
27,1,6,C,retrieval,NA,NA,NA,NA,NA,NA,image360,NA,image360,TRUE,6555.300000000745,image360,image405
27,1,6,C,retrieval,NA,NA,NA,NA,NA,NA,image25,NA,image286,FALSE,2184.900000002235,image25,image405
27,1,7,C,memory-resp,#5c3767,#FFFFFF,image208,11,image405,10,NA,right,left,FALSE,1958.1000000014901,image208,image405
27,1,7,C,memory-resp,#FFFFFF,#5bbc20,image405,10,image117,10,NA,right,NULL,FALSE,NA,image117,image117
27,1,7,C,memory-resp,#27bfc4,#FFFFFF,image232,180,image405,10,NA,left,left,TRUE,1284.300000000745,image232,image232
27,1,7,C,memory-resp,#FFFFFF,#a6413f,image405,10,image220,0.5,NA,left,right,FALSE,1224.6000000014901,image220,image405
27,1,7,C,retrieval,NA,NA,NA,NA,NA,NA,image232,NA,image232,TRUE,5352.199999999255,image232,image405
27,1,7,C,retrieval,NA,NA,NA,NA,NA,NA,image208,NA,image208,TRUE,3266.900000002235,image208,image405
27,1,7,C,retrieval,NA,NA,NA,NA,NA,NA,image220,NA,image332,FALSE,1576.300000000745,image220,image405
27,1,7,C,retrieval,NA,NA,NA,NA,NA,NA,image117,NA,image431,FALSE,846,image117,image405
27,1,8,C,memory-resp,#FFFFFF,#2faca2,image405,10,image191,35,NA,right,right,TRUE,1839.199999999255,image191,image191
27,1,8,C,memory-resp,#FFFFFF,#7c2d3b,image405,10,image8,96,NA,right,right,TRUE,1356.800000000745,image8,image8
27,1,8,C,memory-resp,#8dc238,#FFFFFF,image43,18,image405,10,NA,right,left,FALSE,2303.699999999255,image43,image405
27,1,8,C,memory-resp,#6b37b9,#FFFFFF,image361,26.5,image405,10,NA,left,left,TRUE,727.3999999985099,image361,image361
27,1,8,C,retrieval,NA,NA,NA,NA,NA,NA,image191,NA,image361,FALSE,3646.400000002235,image191,image191
27,1,8,C,retrieval,NA,NA,NA,NA,NA,NA,image43,NA,image43,TRUE,8397.60000000149,image43,image191
27,1,8,C,retrieval,NA,NA,NA,NA,NA,NA,image361,NA,image191,FALSE,1749.6000000014901,image361,image191
27,1,8,C,retrieval,NA,NA,NA,NA,NA,NA,image8,NA,image8,TRUE,1042.5,image8,image191
27,1,9,C,memory-resp,#5b833f,#FFFFFF,image347,999,image405,10,NA,left,left,TRUE,1898.3999999985099,image347,image347
27,1,9,C,memory-resp,#ba2d17,#FFFFFF,image143,72,image405,10,NA,left,left,TRUE,1319.0999999977648,image143,image143
27,1,9,C,memory-resp,#FFFFFF,#6437a0,image405,10,image10,10,NA,right,right,TRUE,1310.5,image10,image10
27,1,9,C,memory-resp,#2d626c,#FFFFFF,image115,9.4,image405,10,NA,left,left,TRUE,1140.3999999985099,image115,image115
27,1,9,C,retrieval,NA,NA,NA,NA,NA,NA,image10,NA,image143,FALSE,1728.1000000014901,image10,image347
27,1,9,C,retrieval,NA,NA,NA,NA,NA,NA,image143,NA,image248,FALSE,2818.5,image143,image347
27,1,9,C,retrieval,NA,NA,NA,NA,NA,NA,image115,NA,image347,FALSE,1958.5,image115,image347
27,1,9,C,retrieval,NA,NA,NA,NA,NA,NA,image347,NA,image115,FALSE,1702.0999999977648,image347,image347
27,1,10,C,memory-resp,#323b77,#FFFFFF,image86,4.5,image405,10,NA,right,NULL,FALSE,NA,image86,image405
27,1,10,C,memory-resp,#FFFFFF,#6d6637,image405,10,image369,200,NA,right,right,TRUE,1595.0999999977648,image369,image369
27,1,10,C,memory-resp,#FFFFFF,#1fc15b,image405,10,image10,10,NA,right,right,TRUE,797.3000000007451,image10,image10
27,1,10,C,memory-resp,#cd238f,#FFFFFF,image335,6.3,image405,10,NA,left,left,TRUE,894.8000000007451,image335,image335
27,1,10,C,retrieval,NA,NA,NA,NA,NA,NA,image335,NA,image335,TRUE,1967.1000000014901,image335,image405
27,1,10,C,retrieval,NA,NA,NA,NA,NA,NA,image369,NA,image10,FALSE,3324.699999999255,image369,image405
27,1,10,C,retrieval,NA,NA,NA,NA,NA,NA,image86,NA,image369,FALSE,2451.800000000745,image86,image405
27,1,10,C,retrieval,NA,NA,NA,NA,NA,NA,image10,NA,image369,FALSE,1375.3999999985099,image10,image405
27,1,11,C,memory-resp,#FFFFFF,#268728,image405,10,image401,12,NA,left,right,FALSE,1124.300000000745,image401,image405
27,1,11,C,memory-resp,#2962b3,#FFFFFF,image381,12,image405,10,NA,right,left,FALSE,1211.5,image381,image405
27,1,11,C,memory-resp,#FFFFFF,#82701c,image405,10,image86,4.5,NA,left,right,FALSE,1266.8999999985099,image86,image405
27,1,11,C,memory-resp,#FFFFFF,#be0e92,image405,10,image421,14,NA,left,right,FALSE,1526,image421,image405
27,1,11,C,retrieval,NA,NA,NA,NA,NA,NA,image381,NA,image401,FALSE,3114.5,image381,image405
27,1,11,C,retrieval,NA,NA,NA,NA,NA,NA,image401,NA,image86,FALSE,2095.199999999255,image401,image405
27,1,11,C,retrieval,NA,NA,NA,NA,NA,NA,image421,NA,image381,FALSE,2422.2999999970198,image421,image405
27,1,11,C,retrieval,NA,NA,NA,NA,NA,NA,image86,NA,image421,FALSE,2553.699999999255,image86,image405
27,1,12,C,memory-resp,#FFFFFF,#834dac,image405,10,image397,0.5,NA,left,right,FALSE,1978.0999999977648,image397,image405
27,1,12,C,memory-resp,#189078,#FFFFFF,image209,5.5,image405,10,NA,left,left,TRUE,1211.3999999985099,image209,image209
27,1,12,C,memory-resp,#FFFFFF,#6e3430,image405,10,image10,10,NA,right,right,TRUE,1461.300000000745,image10,image10
27,1,12,C,memory-resp,#63782b,#FFFFFF,image186,999,image405,10,NA,left,left,TRUE,1810.699999999255,image186,image186
27,1,12,C,retrieval,NA,NA,NA,NA,NA,NA,image209,NA,image397,FALSE,1647,image209,image405
27,1,12,C,retrieval,NA,NA,NA,NA,NA,NA,image10,NA,image10,TRUE,2104.89999999851,image10,image405
27,1,12,C,retrieval,NA,NA,NA,NA,NA,NA,image186,NA,image209,FALSE,1655.300000000745,image186,image405
27,1,12,C,retrieval,NA,NA,NA,NA,NA,NA,image397,NA,image186,FALSE,1673.6000000014901,image397,image405
27,1,13,C,memory-resp,#FFFFFF,#277e91,image405,10,image384,100,NA,right,right,TRUE,1674.5999999977648,image384,image384
27,1,13,C,memory-resp,#FFFFFF,#97411c,image405,10,image243,27.1,NA,right,right,TRUE,1025.5,image243,image243
27,1,13,C,memory-resp,#FFFFFF,#7c4889,image405,10,image86,4.5,NA,left,right,FALSE,755.8999999985099,image86,image405
27,1,13,C,memory-resp,#4b7d1c,#FFFFFF,image68,120,image405,10,NA,left,left,TRUE,1290,image68,image68
27,1,13,C,retrieval,NA,NA,NA,NA,NA,NA,image243,NA,image86,FALSE,2074.699999999255,image243,image384
27,1,13,C,retrieval,NA,NA,NA,NA,NA,NA,image86,NA,image68,FALSE,5279,image86,image384
27,1,13,C,retrieval,NA,NA,NA,NA,NA,NA,image68,NA,image68,TRUE,2910,image68,image384
27,1,13,C,retrieval,NA,NA,NA,NA,NA,NA,image384,NA,image384,TRUE,1983,image384,image384
27,1,14,C,memory-resp,#1d1ad5,#FFFFFF,image428,9,image405,10,NA,left,left,TRUE,2535.300000000745,image428,image428
27,1,14,C,memory-resp,#861842,#FFFFFF,image169,999,image405,10,NA,left,left,TRUE,1426.4000000022352,image169,image169
27,1,14,C,memory-resp,#2d7c4f,#FFFFFF,image161,8.7,image405,10,NA,left,left,TRUE,1552.5,image161,image161
27,1,14,C,memory-resp,#FFFFFF,#868e15,image405,10,image107,200,NA,right,right,TRUE,1675.199999999255,image107,image107
27,1,14,C,retrieval,NA,NA,NA,NA,NA,NA,image107,NA,image107,TRUE,1465.1000000014901,image107,image428
27,1,14,C,retrieval,NA,NA,NA,NA,NA,NA,image161,NA,image169,FALSE,8003.5,image161,image428
27,1,14,C,retrieval,NA,NA,NA,NA,NA,NA,image428,NA,image428,TRUE,1908.300000000745,image428,image428
27,1,14,C,retrieval,NA,NA,NA,NA,NA,NA,image169,NA,image161,FALSE,2929.699999999255,image169,image428
27,1,15,C,memory-resp,#188ed8,#FFFFFF,image56,80,image405,10,NA,left,left,TRUE,2565.5,image56,image56
27,1,15,C,memory-resp,#FFFFFF,#cf982a,image405,10,image412,10.5,NA,left,right,FALSE,933.8000000007451,image412,image405
27,1,15,C,memory-resp,#FFFFFF,#a443a8,image405,10,image392,160,NA,right,right,TRUE,1089.300000000745,image392,image392
27,1,15,C,memory-resp,#38e515,#FFFFFF,image185,10.1,image405,10,NA,right,left,FALSE,1756.699999999255,image185,image405
27,1,15,C,retrieval,NA,NA,NA,NA,NA,NA,image185,NA,image185,TRUE,1558.300000000745,image185,image56
27,1,15,C,retrieval,NA,NA,NA,NA,NA,NA,image56,NA,image412,FALSE,4706,image56,image56
27,1,15,C,retrieval,NA,NA,NA,NA,NA,NA,image412,NA,image56,FALSE,4240.10000000149,image412,image56
27,1,15,C,retrieval,NA,NA,NA,NA,NA,NA,image392,NA,image329,FALSE,3468.599999997765,image392,image56
27,2,P1,B,processing,#207e97,#FFFFFF,image202,2.9,image405,10,NA,right,right,TRUE,775.3999999985099,NA,NA
27,2,P1,B,processing,#FFFFFF,#984c9e,image405,10,image140,2,NA,left,left,TRUE,774.2999999970198,NA,NA
27,2,P1,B,processing,#FFFFFF,#3f7f39,image405,10,image207,24,NA,left,left,TRUE,640.1999999992549,NA,NA
27,2,P1,B,processing,#FFFFFF,#7d4131,image405,10,image415,20,NA,left,left,TRUE,583.5,NA,NA
27,2,P2,B,processing,#FFFFFF,#1db98d,image405,10,image10,10,NA,left,left,TRUE,712.8000000007451,NA,NA
27,2,P2,B,processing,#666c32,#FFFFFF,image26,45,image405,10,NA,right,right,TRUE,680.5,NA,NA
27,2,P2,B,processing,#FFFFFF,#723c48,image405,10,image317,3,NA,left,left,TRUE,597.7000000029802,NA,NA
27,2,P2,B,processing,#FFFFFF,#33288f,image405,10,image312,20.5,NA,left,left,TRUE,652.6000000014901,NA,NA
27,2,P3,B,processing,#2e8459,#FFFFFF,image204,67.4,image405,10,NA,right,right,TRUE,806.2999999970198,NA,NA
27,2,P3,B,processing,#FFFFFF,#62762e,image405,10,image407,5,NA,left,left,TRUE,711.3999999985099,NA,NA
27,2,P3,B,processing,#FFFFFF,#352e99,image405,10,image61,6,NA,left,left,TRUE,688.5,NA,NA
27,2,P3,B,processing,#943367,#FFFFFF,image156,6.5,image405,10,NA,right,right,TRUE,1114.800000000745,NA,NA
27,2,P4,B,processing,#FFFFFF,#af189d,image405,10,image302,11,NA,left,left,TRUE,629.6999999992549,NA,NA
27,2,P4,B,processing,#FFFFFF,#2caf40,image405,10,image151,10,NA,left,left,TRUE,565,NA,NA
27,2,P4,B,processing,#996a15,#FFFFFF,image350,3,image405,10,NA,right,right,TRUE,1138.5999999977648,NA,NA
27,2,P4,B,processing,#1d408b,#FFFFFF,image359,11,image405,10,NA,right,right,TRUE,642.2000000029802,NA,NA
27,2,P5,B,processing,#FFFFFF,#891f33,image405,10,image173,999,NA,left,left,TRUE,1263.4000000022352,NA,NA
27,2,P5,B,processing,#583181,#FFFFFF,image418,25,image405,10,NA,right,right,TRUE,755.8000000007451,NA,NA
27,2,P5,B,processing,#3abbae,#FFFFFF,image88,3.5,image405,10,NA,right,right,TRUE,717.7000000029802,NA,NA
27,2,P5,B,processing,#698c2c,#FFFFFF,image425,700,image405,10,NA,right,right,TRUE,701.1000000014901,NA,NA
27,2,P6,B,processing,#805f38,#FFFFFF,image116,14.5,image405,10,NA,right,right,TRUE,668.5999999977648,NA,NA
27,2,P6,B,processing,#FFFFFF,#34679d,image405,10,image428,9,NA,left,left,TRUE,727.0999999977648,NA,NA
27,2,P6,B,processing,#FFFFFF,#8a1e83,image405,10,image15,12,NA,left,left,TRUE,613.3000000007451,NA,NA
27,2,P6,B,processing,#356732,#FFFFFF,image425,700,image405,10,NA,right,right,TRUE,987.3000000007451,NA,NA
27,2,P7,B,processing,#FFFFFF,#b8ad32,image405,10,image204,67.4,NA,left,left,TRUE,837.6999999992549,NA,NA
27,2,P7,B,processing,#3bab5e,#FFFFFF,image390,36.8,image405,10,NA,right,right,TRUE,721.3000000007451,NA,NA
27,2,P7,B,processing,#FFFFFF,#931a71,image405,10,image377,8.7,NA,left,left,TRUE,872.8999999985099,NA,NA
27,2,P7,B,processing,#393bb1,#FFFFFF,image140,2,image405,10,NA,right,right,TRUE,808.1000000014901,NA,NA
27,2,P8,B,processing,#FFFFFF,#462a7a,image405,10,image208,11,NA,left,left,TRUE,1111.8999999985099,NA,NA
27,2,P8,B,processing,#FFFFFF,#b0cd0e,image405,10,image191,35,NA,left,left,TRUE,626.8000000007451,NA,NA
27,2,P8,B,processing,#FFFFFF,#8d3a58,image405,10,image328,40,NA,left,left,TRUE,465.6000000014901,NA,NA
27,2,P8,B,processing,#27918a,#FFFFFF,image346,950,image405,10,NA,right,right,TRUE,924.9000000022352,NA,NA
27,2,P9,B,processing,#53a249,#FFFFFF,image21,20,image405,10,NA,right,right,TRUE,806.8999999985099,NA,NA
27,2,P9,B,processing,#FFFFFF,#0e46af,image405,10,image35,999,NA,left,left,TRUE,928.6999999992549,NA,NA
27,2,P9,B,processing,#713869,#FFFFFF,image423,5,image405,10,NA,right,right,TRUE,823.8000000007451,NA,NA
27,2,P9,B,processing,#FFFFFF,#a85515,image405,10,image177,15,NA,left,left,TRUE,743.5999999977648,NA,NA
27,2,P10,B,processing,#FFFFFF,#a81a61,image405,10,image295,7.1,NA,left,left,TRUE,826.3999999985099,NA,NA
27,2,P10,B,processing,#FFFFFF,#158a38,image405,10,image284,200,NA,left,left,TRUE,610.1000000014901,NA,NA
27,2,P10,B,processing,#1f337a,#FFFFFF,image34,210,image405,10,NA,right,right,TRUE,825,NA,NA
27,2,P10,B,processing,#FFFFFF,#7f7839,image405,10,image172,8,NA,left,left,TRUE,725.8000000007451,NA,NA
27,2,P11,B,processing,#FFFFFF,#c91362,image405,10,image250,34,NA,left,left,TRUE,721.3000000007451,NA,NA
27,2,P11,B,processing,#FFFFFF,#c8c532,image405,10,image415,20,NA,left,left,TRUE,510.1000000014901,NA,NA
27,2,P11,B,processing,#FFFFFF,#2c1f7a,image405,10,image154,16.2,NA,left,left,TRUE,482,NA,NA
27,2,P11,B,processing,#FFFFFF,#0fbd6f,image405,10,image167,17.4,NA,left,left,TRUE,452.8999999985099,NA,NA
27,2,P12,B,processing,#FFFFFF,#0feb2c,image405,10,image42,100,NA,left,left,TRUE,741.8999999985099,NA,NA
27,2,P12,B,processing,#86187d,#FFFFFF,image32,105,image405,10,NA,right,right,TRUE,1071.1000000014901,NA,NA
27,2,P12,B,processing,#FFFFFF,#2e4e9e,image405,10,image293,60.2,NA,left,left,TRUE,655.2000000029802,NA,NA
27,2,P12,B,processing,#FFFFFF,#c69e24,image405,10,image116,14.5,NA,left,left,TRUE,678.3000000007451,NA,NA
27,2,P13,B,processing,#b310bc,#FFFFFF,image248,300,image405,10,NA,right,right,TRUE,909.1000000014901,NA,NA
27,2,P13,B,processing,#FFFFFF,#245ebc,image405,10,image341,5,NA,left,left,TRUE,683.5,NA,NA
27,2,P13,B,processing,#84672a,#FFFFFF,image420,150,image405,10,NA,right,right,TRUE,718.3000000007451,NA,NA
27,2,P13,B,processing,#FFFFFF,#43b152,image405,10,image30,19.4,NA,left,left,TRUE,637,NA,NA
27,2,P14,B,processing,#3d738a,#FFFFFF,image276,90,image405,10,NA,right,right,TRUE,693.8999999985099,NA,NA
27,2,P14,B,processing,#7b34b2,#FFFFFF,image292,6.8,image405,10,NA,right,right,TRUE,826.5,NA,NA
27,2,P14,B,processing,#FFFFFF,#8a2425,image405,10,image407,5,NA,left,left,TRUE,702.6000000014901,NA,NA
27,2,P14,B,processing,#538e1f,#FFFFFF,image56,80,image405,10,NA,right,right,TRUE,783.3000000007451,NA,NA
27,2,P15,B,processing,#FFFFFF,#3d708a,image405,10,image180,14,NA,left,left,TRUE,753.3000000007451,NA,NA
27,2,P15,B,processing,#4a733a,#FFFFFF,image117,10,image405,10,NA,right,right,TRUE,884.1999999992549,NA,NA
27,2,P15,B,processing,#FFFFFF,#63407d,image405,10,image417,9,NA,left,left,TRUE,692.6000000014901,NA,NA
27,2,P15,B,processing,#FFFFFF,#783821,image405,10,image334,25,NA,left,left,TRUE,726,NA,NA
27,2,P16,B,processing,#c3b128,#FFFFFF,image151,10,image405,10,NA,right,right,TRUE,862.8999999985099,NA,NA
27,2,P16,B,processing,#FFFFFF,#8c1d63,image405,10,image21,20,NA,left,left,TRUE,691.1999999992549,NA,NA
27,2,P16,B,processing,#099a48,#FFFFFF,image28,10,image405,10,NA,right,right,TRUE,1075.300000000745,NA,NA
27,2,P16,B,processing,#FFFFFF,#1c258d,image405,10,image42,100,NA,left,left,TRUE,619.3000000007451,NA,NA
27,2,P17,B,processing,#FFFFFF,#b62916,image405,10,image245,10.5,NA,left,left,TRUE,652.5,NA,NA
27,2,P17,B,processing,#227787,#FFFFFF,image83,140,image405,10,NA,right,right,TRUE,752.8000000007451,NA,NA
27,2,P17,B,processing,#FFFFFF,#3b7a33,image405,10,image45,13,NA,left,left,TRUE,764.8000000007451,NA,NA
27,2,P17,B,processing,#FFFFFF,#592e70,image405,10,image191,35,NA,left,left,TRUE,725.0999999977648,NA,NA
27,2,P18,B,processing,#431d8c,#FFFFFF,image234,24,image405,10,NA,right,right,TRUE,687.6999999992549,NA,NA
27,2,P18,B,processing,#FFFFFF,#964f60,image405,10,image259,30,NA,left,left,TRUE,759.2999999970198,NA,NA
27,2,P18,B,processing,#FFFFFF,#506f2f,image405,10,image7,3,NA,left,left,TRUE,663.6999999992549,NA,NA
27,2,P18,B,processing,#0aa986,#FFFFFF,image2,6.3,image405,10,NA,right,right,TRUE,836,NA,NA
27,2,P19,B,processing,#e13d14,#FFFFFF,image105,7.1,image405,10,NA,right,right,TRUE,880.5,NA,NA
27,2,P19,B,processing,#FFFFFF,#2288b4,image405,10,image353,5,NA,left,left,TRUE,763,NA,NA
27,2,P19,B,processing,#FFFFFF,#367b23,image405,10,image151,10,NA,left,left,TRUE,661.4000000022352,NA,NA
27,2,P19,B,processing,#FFFFFF,#a11fd1,image405,10,image402,30,NA,left,left,TRUE,652.5,NA,NA
27,2,P20,B,processing,#30b584,#FFFFFF,image274,3.9,image405,10,NA,right,right,TRUE,859.5,NA,NA
27,2,P20,B,processing,#50448d,#FFFFFF,image102,700,image405,10,NA,right,right,TRUE,593,NA,NA
27,2,P20,B,processing,#FFFFFF,#c6c913,image405,10,image269,45,NA,left,left,TRUE,840.3999999985099,NA,NA
27,2,P20,B,processing,#79394a,#FFFFFF,image98,15,image405,10,NA,right,right,TRUE,1049.199999999255,NA,NA
27,2,P21,B,processing,#a29734,#FFFFFF,image333,13.2,image405,10,NA,right,right,TRUE,861,NA,NA
27,2,P21,B,processing,#26a147,#FFFFFF,image220,0.5,image405,10,NA,right,right,TRUE,862.3000000007451,NA,NA
27,2,P21,B,processing,#FFFFFF,#e10e9f,image405,10,image415,20,NA,left,left,TRUE,708.9000000022352,NA,NA
27,2,P21,B,processing,#FFFFFF,#4149aa,image405,10,image61,6,NA,left,left,TRUE,662.7999999970198,NA,NA
27,2,P22,B,processing,#28aad2,#FFFFFF,image346,950,image405,10,NA,right,right,TRUE,796.8999999985099,NA,NA
27,2,P22,B,processing,#84441f,#FFFFFF,image342,100,image405,10,NA,right,right,TRUE,695.9000000022352,NA,NA
27,2,P22,B,processing,#3ab71a,#FFFFFF,image193,85,image405,10,NA,right,right,TRUE,677.6999999992549,NA,NA
27,2,P22,B,processing,#FFFFFF,#a232bd,image405,10,image280,20,NA,left,left,TRUE,715,NA,NA
27,2,P23,B,processing,#29d1c0,#FFFFFF,image331,1.7,image405,10,NA,right,right,TRUE,852.6999999992549,NA,NA
27,2,P23,B,processing,#a83534,#FFFFFF,image109,8,image405,10,NA,right,right,TRUE,728.4000000022352,NA,NA
27,2,P23,B,processing,#74b63e,#FFFFFF,image250,34,image405,10,NA,right,right,TRUE,636.6999999992549,NA,NA
27,2,P23,B,processing,#FFFFFF,#641390,image405,10,image223,170,NA,left,left,TRUE,673.8999999985099,NA,NA
27,2,P24,B,processing,#818e1f,#FFFFFF,image13,15,image405,10,NA,right,right,TRUE,767.6999999992549,NA,NA
27,2,P24,B,processing,#26a686,#FFFFFF,image178,999,image405,10,NA,right,right,TRUE,747.4000000022352,NA,NA
27,2,P24,B,processing,#ac4d5a,#FFFFFF,image146,95,image405,10,NA,right,right,TRUE,567.8000000007451,NA,NA
27,2,P24,B,processing,#FFFFFF,#250d9b,image405,10,image201,20,NA,left,left,TRUE,1012.8000000007451,NA,NA
27,2,P25,B,processing,#a5229c,#FFFFFF,image152,180,image405,10,NA,right,right,TRUE,865.4000000022352,NA,NA
27,2,P25,B,processing,#644e35,#FFFFFF,image251,10,image405,10,NA,right,right,TRUE,630.6000000014901,NA,NA
27,2,P25,B,processing,#FFFFFF,#359e15,image405,10,image38,6.5,NA,left,left,TRUE,808.3000000007451,NA,NA
27,2,P25,B,processing,#0c8eb6,#FFFFFF,image228,250,image405,10,NA,right,right,TRUE,690.5999999977648,NA,NA
27,2,1,B,memory-resp,#FFFFFF,#583e75,image405,10,image178,999,NA,left,left,TRUE,1662.2000000029802,image178,image405
27,2,1,B,memory-resp,#FFFFFF,#4d858f,image405,10,image334,25,NA,left,left,TRUE,1785.0999999977648,image334,image405
27,2,1,B,memory-resp,#7bb91d,#FFFFFF,image7,3,image405,10,NA,right,right,TRUE,1819.0999999977648,image7,image405
27,2,1,B,memory-resp,#FFFFFF,#7c2b1d,image405,10,image113,210,NA,left,left,TRUE,1616.4000000022352,image113,image405
27,2,1,B,retrieval,NA,NA,NA,NA,NA,NA,image7,NA,image7,TRUE,1812.699999999255,image7,image405
27,2,1,B,retrieval,NA,NA,NA,NA,NA,NA,image178,NA,image334,FALSE,3585.39999999851,image178,image405
27,2,1,B,retrieval,NA,NA,NA,NA,NA,NA,image113,NA,image113,TRUE,1113.8999999985099,image113,image405
27,2,1,B,retrieval,NA,NA,NA,NA,NA,NA,image334,NA,image334,TRUE,3354.5,image334,image405
27,2,2,B,memory-resp,#9d662f,#FFFFFF,image168,3,image405,10,NA,right,right,TRUE,1331.199999999255,image168,image405
27,2,2,B,memory-resp,#FFFFFF,#963498,image405,10,image124,170,NA,left,left,TRUE,1380.800000000745,image124,image405
27,2,2,B,memory-resp,#FFFFFF,#1956b8,image405,10,image103,999,NA,left,left,TRUE,1360.5,image103,image405
27,2,2,B,memory-resp,#458745,#FFFFFF,image304,18,image405,10,NA,right,right,TRUE,1788.8999999985099,image304,image405
27,2,2,B,retrieval,NA,NA,NA,NA,NA,NA,image168,NA,image124,FALSE,2086.39999999851,image168,image405
27,2,2,B,retrieval,NA,NA,NA,NA,NA,NA,image304,NA,image304,TRUE,2287.300000000745,image304,image405
27,2,2,B,retrieval,NA,NA,NA,NA,NA,NA,image103,NA,image103,TRUE,3654,image103,image405
27,2,2,B,retrieval,NA,NA,NA,NA,NA,NA,image124,NA,image124,TRUE,1384,image124,image405
27,2,3,B,memory-resp,#FFFFFF,#e31698,image405,10,image287,7,NA,left,left,TRUE,1937.0999999977648,image287,image405
27,2,3,B,memory-resp,#328143,#FFFFFF,image230,999,image405,10,NA,right,right,TRUE,2074.39999999851,image230,image405
27,2,3,B,memory-resp,#a16a12,#FFFFFF,image83,140,image405,10,NA,right,right,TRUE,1633.300000000745,image83,image405
27,2,3,B,memory-resp,#3d4871,#FFFFFF,image276,90,image405,10,NA,right,right,TRUE,1891.699999999255,image276,image405
27,2,3,B,retrieval,NA,NA,NA,NA,NA,NA,image287,NA,image287,TRUE,4750.89999999851,image287,image405
27,2,3,B,retrieval,NA,NA,NA,NA,NA,NA,image230,NA,image230,TRUE,1296.1000000014901,image230,image405
27,2,3,B,retrieval,NA,NA,NA,NA,NA,NA,image276,NA,image276,TRUE,6127.800000000745,image276,image405
27,2,3,B,retrieval,NA,NA,NA,NA,NA,NA,image83,NA,image83,TRUE,4011,image83,image405
27,2,4,B,memory-resp,#FFFFFF,#b31ea9,image405,10,image414,55,NA,left,left,TRUE,1894.800000000745,image414,image405
27,2,4,B,memory-resp,#a14c1b,#FFFFFF,image241,90,image405,10,NA,right,NULL,FALSE,NA,image241,image405
27,2,4,B,memory-resp,#457aa1,#FFFFFF,image350,3,image405,10,NA,right,right,TRUE,1064.9000000022352,image350,image405
27,2,4,B,memory-resp,#1fad2b,#FFFFFF,image7,3,image405,10,NA,right,right,TRUE,1596.800000000745,image7,image405
27,2,4,B,retrieval,NA,NA,NA,NA,NA,NA,image350,NA,image350,TRUE,2147.800000000745,image350,image405
27,2,4,B,retrieval,NA,NA,NA,NA,NA,NA,image7,NA,image71,FALSE,1858.699999999255,image7,image405
27,2,4,B,retrieval,NA,NA,NA,NA,NA,NA,image241,NA,image241,TRUE,1782.800000000745,image241,image405
27,2,4,B,retrieval,NA,NA,NA,NA,NA,NA,image414,NA,image233,FALSE,2694.699999999255,image414,image405
27,2,5,B,memory-resp,#19c88a,#FFFFFF,image342,100,image405,10,NA,right,right,TRUE,1387,image342,image405
27,2,5,B,memory-resp,#FFFFFF,#a0b13e,image405,10,image40,999,NA,left,left,TRUE,2015.9000000022352,image40,image405
27,2,5,B,memory-resp,#FFFFFF,#a30a42,image405,10,image89,35,NA,left,left,TRUE,1445.699999999255,image89,image405
27,2,5,B,memory-resp,#FFFFFF,#4c407d,image405,10,image353,5,NA,left,left,TRUE,1210.8999999985099,image353,image405
27,2,5,B,retrieval,NA,NA,NA,NA,NA,NA,image353,NA,image40,FALSE,3219.800000000745,image353,image405
27,2,5,B,retrieval,NA,NA,NA,NA,NA,NA,image40,NA,image412,FALSE,2182.800000000745,image40,image405
27,2,5,B,retrieval,NA,NA,NA,NA,NA,NA,image89,NA,image340,FALSE,1695.3999999985099,image89,image405
27,2,5,B,retrieval,NA,NA,NA,NA,NA,NA,image342,NA,image185,FALSE,2864.400000002235,image342,image405
27,2,6,B,memory-resp,#FFFFFF,#43a89a,image405,10,image244,65,NA,left,left,TRUE,1532.699999999255,image244,image405
27,2,6,B,memory-resp,#749d53,#FFFFFF,image81,2.7,image405,10,NA,right,right,TRUE,1171.699999999255,image81,image405
27,2,6,B,memory-resp,#FFFFFF,#852a1e,image405,10,image423,5,NA,left,left,TRUE,1409.1000000014901,image423,image405
27,2,6,B,memory-resp,#FFFFFF,#6631af,image405,10,image146,95,NA,left,left,TRUE,1440.9000000022352,image146,image405
27,2,6,B,retrieval,NA,NA,NA,NA,NA,NA,image146,NA,image146,TRUE,4686.60000000149,image146,image405
27,2,6,B,retrieval,NA,NA,NA,NA,NA,NA,image423,NA,image423,TRUE,2047.8999999985099,image423,image405
27,2,6,B,retrieval,NA,NA,NA,NA,NA,NA,image244,NA,image81,FALSE,2979,image244,image405
27,2,6,B,retrieval,NA,NA,NA,NA,NA,NA,image81,NA,image81,TRUE,1110.300000000745,image81,image405
27,2,7,B,memory-resp,#FFFFFF,#59a423,image405,10,image167,17.4,NA,left,left,TRUE,1586.199999999255,image167,image405
27,2,7,B,memory-resp,#804b3c,#FFFFFF,image192,20,image405,10,NA,right,right,TRUE,1916.1000000014901,image192,image405
27,2,7,B,memory-resp,#375a68,#FFFFFF,image88,3.5,image405,10,NA,right,right,TRUE,1717.5,image88,image405
27,2,7,B,memory-resp,#7d208d,#FFFFFF,image52,800,image405,10,NA,right,right,TRUE,1329.5,image52,image405
27,2,7,B,retrieval,NA,NA,NA,NA,NA,NA,image167,NA,image198,FALSE,5323.10000000149,image167,image405
27,2,7,B,retrieval,NA,NA,NA,NA,NA,NA,image192,NA,image192,TRUE,1877.3999999985099,image192,image405
27,2,7,B,retrieval,NA,NA,NA,NA,NA,NA,image88,NA,image88,TRUE,2792.199999999255,image88,image405
27,2,7,B,retrieval,NA,NA,NA,NA,NA,NA,image52,NA,image20,FALSE,1238.6000000014901,image52,image405
27,2,8,B,memory-resp,#FFFFFF,#1b6c7e,image405,10,image253,50,NA,left,left,TRUE,1504.5,image253,image405
27,2,8,B,memory-resp,#694280,#FFFFFF,image258,7,image405,10,NA,right,right,TRUE,1645.5,image258,image405
27,2,8,B,memory-resp,#65343b,#FFFFFF,image130,250,image405,10,NA,right,right,TRUE,1875,image130,image405
27,2,8,B,memory-resp,#FFFFFF,#729f32,image405,10,image415,20,NA,left,left,TRUE,1789.199999999255,image415,image405
27,2,8,B,retrieval,NA,NA,NA,NA,NA,NA,image415,NA,image415,TRUE,1270.8999999985099,image415,image405
27,2,8,B,retrieval,NA,NA,NA,NA,NA,NA,image253,NA,image253,TRUE,5911.300000000745,image253,image405
27,2,8,B,retrieval,NA,NA,NA,NA,NA,NA,image130,NA,image258,FALSE,2821.89999999851,image130,image405
27,2,8,B,retrieval,NA,NA,NA,NA,NA,NA,image258,NA,image258,TRUE,1407.5,image258,image405
27,2,9,B,memory-resp,#FFFFFF,#2a317e,image405,10,image240,19,NA,left,left,TRUE,2399,image240,image405
27,2,9,B,memory-resp,#dcc61e,#FFFFFF,image95,1,image405,10,NA,right,right,TRUE,2034.800000000745,image95,image405
27,2,9,B,memory-resp,#723652,#FFFFFF,image214,80,image405,10,NA,right,right,TRUE,1325,image214,image405
27,2,9,B,memory-resp,#228155,#FFFFFF,image148,30,image405,10,NA,right,right,TRUE,1548.6000000014901,image148,image405
27,2,9,B,retrieval,NA,NA,NA,NA,NA,NA,image240,NA,image214,FALSE,4023.099999997765,image240,image405
27,2,9,B,retrieval,NA,NA,NA,NA,NA,NA,image95,NA,image95,TRUE,3020.7000000029802,image95,image405
27,2,9,B,retrieval,NA,NA,NA,NA,NA,NA,image148,NA,image148,TRUE,4810.39999999851,image148,image405
27,2,9,B,retrieval,NA,NA,NA,NA,NA,NA,image214,NA,image240,FALSE,2411.2000000029802,image214,image405
27,2,10,B,memory-resp,#FFFFFF,#76652e,image405,10,image145,10,NA,left,left,TRUE,1582.7000000029802,image145,image405
27,2,10,B,memory-resp,#18bf52,#FFFFFF,image389,4.8,image405,10,NA,right,right,TRUE,1792.199999999255,image389,image405
27,2,10,B,memory-resp,#33578a,#FFFFFF,image408,7,image405,10,NA,right,right,TRUE,1923.699999999255,image408,image405
27,2,10,B,memory-resp,#9c167f,#FFFFFF,image186,999,image405,10,NA,right,right,TRUE,1302.5999999977648,image186,image405
27,2,10,B,retrieval,NA,NA,NA,NA,NA,NA,image145,NA,image408,FALSE,3050.199999999255,image145,image405
27,2,10,B,retrieval,NA,NA,NA,NA,NA,NA,image389,NA,image145,FALSE,4122.5,image389,image405
27,2,10,B,retrieval,NA,NA,NA,NA,NA,NA,image408,NA,image408,TRUE,2540.89999999851,image408,image405
27,2,10,B,retrieval,NA,NA,NA,NA,NA,NA,image186,NA,image186,TRUE,1056.0999999977648,image186,image405
27,2,11,B,memory-resp,#892b24,#FFFFFF,image149,29.3,image405,10,NA,right,right,TRUE,2297,image149,image405
27,2,11,B,memory-resp,#5c8b4b,#FFFFFF,image269,45,image405,10,NA,right,right,TRUE,1749.800000000745,image269,image405
27,2,11,B,memory-resp,#2e8299,#FFFFFF,image245,10.5,image405,10,NA,right,right,TRUE,1695.4000000022352,image245,image405
27,2,11,B,memory-resp,#FFFFFF,#6a1d91,image405,10,image409,28,NA,left,left,TRUE,2028.9000000022352,image409,image405
27,2,11,B,retrieval,NA,NA,NA,NA,NA,NA,image149,NA,image149,TRUE,2595.7999999970198,image149,image405
27,2,11,B,retrieval,NA,NA,NA,NA,NA,NA,image245,NA,image245,TRUE,5018.900000002235,image245,image405
27,2,11,B,retrieval,NA,NA,NA,NA,NA,NA,image269,NA,image269,TRUE,3584.800000000745,image269,image405
27,2,11,B,retrieval,NA,NA,NA,NA,NA,NA,image409,NA,image409,TRUE,1048.2999999970198,image409,image405
27,2,12,B,memory-resp,#41209d,#FFFFFF,image309,13.6,image405,10,NA,right,right,TRUE,1533.199999999255,image309,image405
27,2,12,B,memory-resp,#ab4450,#FFFFFF,image136,33,image405,10,NA,right,right,TRUE,1919.9000000022352,image136,image405
27,2,12,B,memory-resp,#FFFFFF,#16c1ca,image405,10,image40,999,NA,left,left,TRUE,1637.199999999255,image40,image405
27,2,12,B,memory-resp,#FFFFFF,#597637,image405,10,image83,140,NA,left,left,TRUE,1879.5999999977648,image83,image405
27,2,12,B,retrieval,NA,NA,NA,NA,NA,NA,image309,NA,image40,FALSE,2442.800000000745,image309,image405
27,2,12,B,retrieval,NA,NA,NA,NA,NA,NA,image136,NA,image309,FALSE,1223.300000000745,image136,image405
27,2,12,B,retrieval,NA,NA,NA,NA,NA,NA,image83,NA,image83,TRUE,2349.10000000149,image83,image405
27,2,12,B,retrieval,NA,NA,NA,NA,NA,NA,image40,NA,image136,FALSE,3680.800000000745,image40,image405
27,2,13,B,memory-resp,#2f8372,#FFFFFF,image124,170,image405,10,NA,right,right,TRUE,1780.8999999985099,image124,image405
27,2,13,B,memory-resp,#672f98,#FFFFFF,image404,7.5,image405,10,NA,right,right,TRUE,2075,image404,image405
27,2,13,B,memory-resp,#FFFFFF,#579f19,image405,10,image393,204,NA,left,left,TRUE,1660.9000000022352,image393,image405
27,2,13,B,memory-resp,#FFFFFF,#772c22,image405,10,image90,23,NA,left,left,TRUE,1366,image90,image405
27,2,13,B,retrieval,NA,NA,NA,NA,NA,NA,image393,NA,image393,TRUE,2187,image393,image405
27,2,13,B,retrieval,NA,NA,NA,NA,NA,NA,image90,NA,image90,TRUE,3415.900000002235,image90,image405
27,2,13,B,retrieval,NA,NA,NA,NA,NA,NA,image404,NA,image111,FALSE,6382.39999999851,image404,image405
27,2,13,B,retrieval,NA,NA,NA,NA,NA,NA,image124,NA,image124,TRUE,1547.5999999977648,image124,image405
27,2,14,B,memory-resp,#7032a9,#FFFFFF,image272,35,image405,10,NA,right,right,TRUE,1796.199999999255,image272,image405
27,2,14,B,memory-resp,#964f5d,#FFFFFF,image323,25,image405,10,NA,right,right,TRUE,1303.800000000745,image323,image405
27,2,14,B,memory-resp,#678c1d,#FFFFFF,image274,3.9,image405,10,NA,right,right,TRUE,1317,image274,image405
27,2,14,B,memory-resp,#3f8875,#FFFFFF,image177,15,image405,10,NA,right,right,TRUE,1390,image177,image405
27,2,14,B,retrieval,NA,NA,NA,NA,NA,NA,image274,NA,image323,FALSE,1873.9000000022352,image274,image405
27,2,14,B,retrieval,NA,NA,NA,NA,NA,NA,image272,NA,image272,TRUE,4199.60000000149,image272,image405
27,2,14,B,retrieval,NA,NA,NA,NA,NA,NA,image177,NA,image177,TRUE,6592.60000000149,image177,image405
27,2,14,B,retrieval,NA,NA,NA,NA,NA,NA,image323,NA,image296,FALSE,5018.599999997765,image323,image405
27,2,15,B,memory-resp,#86741d,#FFFFFF,image320,170,image405,10,NA,right,right,TRUE,2487,image320,image405
27,2,15,B,memory-resp,#FFFFFF,#3e7e56,image405,10,image232,180,NA,left,left,TRUE,2104,image232,image405
27,2,15,B,memory-resp,#833464,#FFFFFF,image65,450,image405,10,NA,right,right,TRUE,2333.89999999851,image65,image405
27,2,15,B,memory-resp,#2534b6,#FFFFFF,image357,4.3,image405,10,NA,right,right,TRUE,1408.3999999985099,image357,image405
27,2,15,B,retrieval,NA,NA,NA,NA,NA,NA,image65,NA,image65,TRUE,2873.89999999851,image65,image405
27,2,15,B,retrieval,NA,NA,NA,NA,NA,NA,image232,NA,image232,TRUE,1512.7000000029802,image232,image405
27,2,15,B,retrieval,NA,NA,NA,NA,NA,NA,image357,NA,image357,TRUE,4993.39999999851,image357,image405
27,2,15,B,retrieval,NA,NA,NA,NA,NA,NA,image320,NA,image320,TRUE,2205.60000000149,image320,image405
27,3,P1,D,processing,#39666a,#FFFFFF,image14,1,image232,180,NA,right,right,TRUE,1545.300000000745,NA,NA
27,3,P1,D,processing,#FFFFFF,#5f7740,image280,20,image247,999,NA,right,left,FALSE,1756.5999999977648,NA,NA
27,3,P1,D,processing,#FFFFFF,#571f7a,image299,300,image376,40,NA,left,left,TRUE,2132.199999999255,NA,NA
27,3,P1,D,processing,#742f32,#FFFFFF,image181,999,image259,30,NA,left,right,FALSE,1853.9000000022352,NA,NA
27,3,P2,D,processing,#FFFFFF,#8a3433,image188,5,image154,16.2,NA,right,right,TRUE,1692.5,NA,NA
27,3,P2,D,processing,#9d25d4,#FFFFFF,image42,100,image263,5.4,NA,left,right,FALSE,2649.39999999851,NA,NA
27,3,P2,D,processing,#FFFFFF,#406a34,image177,15,image254,140,NA,right,right,TRUE,1516.7000000029802,NA,NA
27,3,P2,D,processing,#109491,#FFFFFF,image102,700,image112,13,NA,left,left,TRUE,1238.5,NA,NA
27,3,P3,D,processing,#777f34,#FFFFFF,image412,10.5,image168,3,NA,left,right,FALSE,1800.6000000014901,NA,NA
27,3,P3,D,processing,#574d9d,#FFFFFF,image201,20,image52,800,NA,right,left,FALSE,1473.4000000022352,NA,NA
27,3,P3,D,processing,#95507a,#FFFFFF,image155,14.5,image296,7,NA,left,NULL,FALSE,NA,NA,NA
27,3,P3,D,processing,#FFFFFF,#468166,image144,60,image103,999,NA,right,right,TRUE,1027.4000000022352,NA,NA
27,3,P4,D,processing,#FFFFFF,#97ba36,image230,999,image388,350,NA,left,left,TRUE,1142.0999999977648,NA,NA
27,3,P4,D,processing,#FFFFFF,#3f44a2,image16,999,image295,7.1,NA,left,right,FALSE,902.4000000022352,NA,NA
27,3,P4,D,processing,#3ea892,#FFFFFF,image292,6.8,image73,1.6,NA,left,left,TRUE,1947.199999999255,NA,NA
27,3,P4,D,processing,#a94c6e,#FFFFFF,image400,42,image135,8.4,NA,left,left,TRUE,1747.6000000014901,NA,NA
27,3,P5,D,processing,#FFFFFF,#c09639,image94,3.4,image111,8,NA,right,right,TRUE,1218.0999999977648,NA,NA
27,3,P5,D,processing,#842457,#FFFFFF,image73,1.6,image92,4,NA,right,left,FALSE,1266.8999999985099,NA,NA
27,3,P5,D,processing,#1b2998,#FFFFFF,image178,999,image199,7,NA,left,left,TRUE,945,NA,NA
27,3,P5,D,processing,#FFFFFF,#20c541,image369,200,image165,6.6,NA,left,left,TRUE,1077.1000000014901,NA,NA
27,3,P6,D,processing,#FFFFFF,#1f2eb2,image324,1.4,image285,240,NA,right,right,TRUE,1401.5,NA,NA
27,3,P6,D,processing,#FFFFFF,#0dc965,image385,48,image70,7,NA,left,left,TRUE,950,NA,NA
27,3,P6,D,processing,#767328,#FFFFFF,image327,6.3,image402,30,NA,right,right,TRUE,2095.39999999851,NA,NA
27,3,P6,D,processing,#a73972,#FFFFFF,image76,5.5,image345,60,NA,right,right,TRUE,1732.6000000014901,NA,NA
27,3,P7,D,processing,#FFFFFF,#83523a,image37,4.2,image213,0.7,NA,left,right,FALSE,999.6000000014901,NA,NA
27,3,P7,D,processing,#612871,#FFFFFF,image178,999,image288,34,NA,left,left,TRUE,855.7999999970198,NA,NA
27,3,P7,D,processing,#4fb11b,#FFFFFF,image416,400,image338,12,NA,left,left,TRUE,721.1999999992549,NA,NA
27,3,P7,D,processing,#24898f,#FFFFFF,image392,160,image336,7,NA,left,left,TRUE,600.1000000014901,NA,NA
27,3,P8,D,processing,#FFFFFF,#c7293b,image20,4.5,image31,150,NA,right,right,TRUE,966.7000000029802,NA,NA
27,3,P8,D,processing,#638d16,#FFFFFF,image207,24,image347,999,NA,right,right,TRUE,835.5,NA,NA
27,3,P8,D,processing,#FFFFFF,#316b6d,image212,8,image397,0.5,NA,left,left,TRUE,1339.9000000022352,NA,NA
27,3,P8,D,processing,#7e22c9,#FFFFFF,image342,100,image429,40,NA,left,left,TRUE,1143.800000000745,NA,NA
27,3,P9,D,processing,#c3324d,#FFFFFF,image42,100,image164,13.5,NA,left,right,FALSE,943.9000000022352,NA,NA
27,3,P9,D,processing,#FFFFFF,#470dce,image388,350,image235,3.5,NA,left,left,TRUE,1053.6000000014901,NA,NA
27,3,P9,D,processing,#8ec22e,#FFFFFF,image143,72,image186,999,NA,right,right,TRUE,1269.5,NA,NA
27,3,P9,D,processing,#3a7e7e,#FFFFFF,image225,22,image62,7.5,NA,left,left,TRUE,775.1999999992549,NA,NA
27,3,P10,D,processing,#FFFFFF,#2385af,image338,12,image104,6,NA,left,right,FALSE,1596.800000000745,NA,NA
27,3,P10,D,processing,#34c81e,#FFFFFF,image189,400,image186,999,NA,right,right,TRUE,734.1000000014901,NA,NA
27,3,P10,D,processing,#FFFFFF,#914127,image142,1,image255,4.5,NA,right,right,TRUE,1706.699999999255,NA,NA
27,3,P10,D,processing,#FFFFFF,#770db5,image349,5.8,image182,800,NA,right,right,TRUE,1200.800000000745,NA,NA
27,3,P11,D,processing,#57ab36,#FFFFFF,image213,0.7,image251,10,NA,right,left,FALSE,1253.6000000014901,NA,NA
27,3,P11,D,processing,#2c6972,#FFFFFF,image119,0.4,image40,999,NA,right,left,FALSE,783.0999999977648,NA,NA
27,3,P11,D,processing,#a4592d,#FFFFFF,image393,204,image37,4.2,NA,left,left,TRUE,950.2999999970198,NA,NA
27,3,P11,D,processing,#FFFFFF,#873c96,image207,24,image426,48,NA,right,right,TRUE,1596.699999999255,NA,NA
27,3,P12,D,processing,#FFFFFF,#255893,image3,12,image52,800,NA,right,right,TRUE,1216,NA,NA
27,3,P12,D,processing,#257c1d,#FFFFFF,image209,5.5,image194,240,NA,right,right,TRUE,879,NA,NA
27,3,P12,D,processing,#c613c9,#FFFFFF,image155,14.5,image356,5.5,NA,left,left,TRUE,1460.3999999985099,NA,NA
27,3,P12,D,processing,#9a6709,#FFFFFF,image214,80,image245,10.5,NA,left,left,TRUE,1311.800000000745,NA,NA
27,3,P13,D,processing,#FFFFFF,#431386,image159,120,image13,15,NA,left,left,TRUE,1292.9000000022352,NA,NA
27,3,P13,D,processing,#FFFFFF,#85a040,image336,7,image31,150,NA,right,right,TRUE,950.1000000014901,NA,NA
27,3,P13,D,processing,#FFFFFF,#207977,image89,35,image266,1.5,NA,left,right,FALSE,869.2000000029802,NA,NA
27,3,P13,D,processing,#FFFFFF,#82354c,image173,999,image165,6.6,NA,left,left,TRUE,719,NA,NA
27,3,P14,D,processing,#d2143a,#FFFFFF,image226,70.2,image413,153,NA,right,left,FALSE,868.8999999985099,NA,NA
27,3,P14,D,processing,#FFFFFF,#35b18e,image284,200,image346,950,NA,right,right,TRUE,1797.9000000022352,NA,NA
27,3,P14,D,processing,#a7ba2c,#FFFFFF,image40,999,image96,180,NA,left,left,TRUE,1265.9000000022352,NA,NA
27,3,P14,D,processing,#36179b,#FFFFFF,image296,7,image272,35,NA,right,left,FALSE,968.7999999970198,NA,NA
27,3,P15,D,processing,#259d6f,#FFFFFF,image392,160,image329,8,NA,left,left,TRUE,894.2000000029802,NA,NA
27,3,P15,D,processing,#d20f43,#FFFFFF,image64,960,image31,150,NA,left,right,FALSE,1487.199999999255,NA,NA
27,3,P15,D,processing,#a5b446,#FFFFFF,image119,0.4,image338,12,NA,right,right,TRUE,1045.800000000745,NA,NA
27,3,P15,D,processing,#FFFFFF,#3d3fae,image199,7,image388,350,NA,right,right,TRUE,1359.300000000745,NA,NA
27,3,P16,D,processing,#FFFFFF,#8c23d1,image365,5,image252,12,NA,right,right,TRUE,1043.300000000745,NA,NA
27,3,P16,D,processing,#FFFFFF,#81523b,image56,80,image225,22,NA,left,right,FALSE,907.7000000029802,NA,NA
27,3,P16,D,processing,#FFFFFF,#35676e,image369,200,image273,999,NA,right,left,FALSE,1291.199999999255,NA,NA
27,3,P16,D,processing,#FFFFFF,#30c021,image5,27.1,image54,7,NA,left,right,FALSE,1510.6000000014901,NA,NA
27,3,P17,D,processing,#0bad26,#FFFFFF,image254,140,image66,999,NA,right,left,FALSE,942,NA,NA
27,3,P17,D,processing,#FFFFFF,#8c4f12,image223,170,image138,2,NA,left,left,TRUE,860.5,NA,NA
27,3,P17,D,processing,#FFFFFF,#c322a8,image141,30,image208,11,NA,left,left,TRUE,1298.800000000745,NA,NA
27,3,P17,D,processing,#1546a8,#FFFFFF,image324,1.4,image287,7,NA,right,right,TRUE,1576.2000000029802,NA,NA
27,3,P18,D,processing,#FFFFFF,#718d34,image356,5.5,image416,400,NA,right,right,TRUE,957.6999999992549,NA,NA
27,3,P18,D,processing,#FFFFFF,#387a6e,image101,180,image167,17.4,NA,left,left,TRUE,1174,NA,NA
27,3,P18,D,processing,#FFFFFF,#580fb8,image18,18,image222,200,NA,right,left,FALSE,796.1999999992549,NA,NA
27,3,P18,D,processing,#FFFFFF,#ab1226,image160,0.7,image359,11,NA,right,right,TRUE,834.5,NA,NA
27,3,P19,D,processing,#65c133,#FFFFFF,image191,35,image178,999,NA,right,right,TRUE,1584.5999999977648,NA,NA
27,3,P19,D,processing,#1189b0,#FFFFFF,image361,26.5,image397,0.5,NA,left,left,TRUE,778.3999999985099,NA,NA
27,3,P19,D,processing,#7625a2,#FFFFFF,image57,2.5,image133,300,NA,right,right,TRUE,1066.2999999970198,NA,NA
27,3,P19,D,processing,#FFFFFF,#a13426,image255,4.5,image343,16,NA,right,right,TRUE,1388.699999999255,NA,NA
27,3,P20,D,processing,#FFFFFF,#13a042,image402,30,image61,6,NA,left,left,TRUE,1073.3999999985099,NA,NA
27,3,P20,D,processing,#FFFFFF,#8e651f,image159,120,image255,4.5,NA,left,left,TRUE,1231.5,NA,NA
27,3,P20,D,processing,#742a52,#FFFFFF,image370,58.5,image215,153,NA,right,left,FALSE,836.6999999992549,NA,NA
27,3,P20,D,processing,#FFFFFF,#2352d1,image216,500,image88,3.5,NA,left,left,TRUE,727.5,NA,NA
27,3,P21,D,processing,#7e593e,#FFFFFF,image347,999,image290,8.5,NA,left,left,TRUE,711.6000000014901,NA,NA
27,3,P21,D,processing,#FFFFFF,#c62fb5,image343,16,image326,1.9,NA,left,left,TRUE,1071,NA,NA
27,3,P21,D,processing,#39a245,#FFFFFF,image327,6.3,image400,42,NA,right,right,TRUE,1808.1000000014901,NA,NA
27,3,P21,D,processing,#FFFFFF,#1c5782,image323,25,image285,240,NA,right,right,TRUE,1619.300000000745,NA,NA
27,3,P22,D,processing,#3f9d55,#FFFFFF,image79,170,image9,36,NA,left,left,TRUE,1180.7999999970198,NA,NA
27,3,P22,D,processing,#2944b3,#FFFFFF,image147,3,image288,34,NA,right,left,FALSE,778.1999999992549,NA,NA
27,3,P22,D,processing,#912256,#FFFFFF,image229,25,image413,153,NA,right,right,TRUE,1578.3999999985099,NA,NA
27,3,P22,D,processing,#FFFFFF,#8c7d22,image202,2.9,image234,24,NA,right,right,TRUE,1020.5,NA,NA
27,3,P23,D,processing,#833f79,#FFFFFF,image346,950,image212,8,NA,left,left,TRUE,963.6999999992549,NA,NA
27,3,P23,D,processing,#dea712,#FFFFFF,image321,40,image172,8,NA,left,left,TRUE,764.0999999977648,NA,NA
27,3,P23,D,processing,#2a4ba7,#FFFFFF,image220,0.5,image385,48,NA,right,right,TRUE,1231.699999999255,NA,NA
27,3,P23,D,processing,#18dc22,#FFFFFF,image207,24,image8,96,NA,right,right,TRUE,1781.5,NA,NA
27,3,P24,D,processing,#FFFFFF,#60c039,image358,16.2,image404,7.5,NA,left,right,FALSE,1201.199999999255,NA,NA
27,3,P24,D,processing,#a22529,#FFFFFF,image82,95,image389,4.8,NA,left,left,TRUE,848.5,NA,NA
27,3,P24,D,processing,#FFFFFF,#1ad1be,image160,0.7,image49,20,NA,right,right,TRUE,2028.4000000022352,NA,NA
27,3,P24,D,processing,#FFFFFF,#6114b8,image228,250,image40,999,NA,right,right,TRUE,1371.3999999985099,NA,NA
27,3,P25,D,processing,#b116b1,#FFFFFF,image237,8.1,image397,0.5,NA,left,left,TRUE,1072.800000000745,NA,NA
27,3,P25,D,processing,#FFFFFF,#a17221,image88,3.5,image396,34,NA,right,right,TRUE,1782,NA,NA
27,3,P25,D,processing,#297fae,#FFFFFF,image155,14.5,image407,5,NA,left,right,FALSE,925.0999999977648,NA,NA
27,3,P25,D,processing,#2bab3c,#FFFFFF,image363,11.3,image215,153,NA,right,right,TRUE,1604.300000000745,NA,NA
27,3,1,D,memory-resp,#FFFFFF,#4baa91,image53,6.4,image303,20,NA,right,right,TRUE,1788.4000000022352,image303,image303
27,3,1,D,memory-resp,#FFFFFF,#567e25,image331,1.7,image220,0.5,NA,left,left,TRUE,1453.6000000014901,image220,image331
27,3,1,D,memory-resp,#FFFFFF,#594ca4,image346,950,image390,36.8,NA,left,right,FALSE,1175,image390,image346
27,3,1,D,memory-resp,#FFFFFF,#992439,image14,1,image399,9,NA,right,right,TRUE,1220.2000000029802,image399,image399
27,3,1,D,retrieval,NA,NA,NA,NA,NA,NA,image390,NA,image390,TRUE,2445.300000000745,image390,image303
27,3,1,D,retrieval,NA,NA,NA,NA,NA,NA,image303,NA,image331,FALSE,1023.2000000029802,image303,image303
27,3,1,D,retrieval,NA,NA,NA,NA,NA,NA,image399,NA,image399,TRUE,1509.8999999985099,image399,image303
27,3,1,D,retrieval,NA,NA,NA,NA,NA,NA,image220,NA,image14,FALSE,1679.8999999985099,image220,image303
27,3,2,D,memory-resp,#FFFFFF,#1f8e5e,image400,42,image124,170,NA,right,right,TRUE,1793.199999999255,image124,image124
27,3,2,D,memory-resp,#FFFFFF,#2d2b8c,image248,300,image296,7,NA,left,left,TRUE,2688.800000000745,image296,image248
27,3,2,D,memory-resp,#c91d8a,#FFFFFF,image151,10,image160,0.7,NA,left,left,TRUE,1955.0999999977648,image151,image151
27,3,2,D,memory-resp,#FFFFFF,#9b9d2a,image102,700,image132,15,NA,left,left,TRUE,1879.300000000745,image132,image102
27,3,2,D,retrieval,NA,NA,NA,NA,NA,NA,image151,NA,image151,TRUE,2274.2000000029802,image151,image124
27,3,2,D,retrieval,NA,NA,NA,NA,NA,NA,image132,NA,image124,FALSE,4832.099999997765,image132,image124
27,3,2,D,retrieval,NA,NA,NA,NA,NA,NA,image296,NA,image132,FALSE,2904.099999997765,image296,image124
27,3,2,D,retrieval,NA,NA,NA,NA,NA,NA,image124,NA,image296,FALSE,924.1999999992549,image124,image124
27,3,3,D,memory-resp,#FFFFFF,#663366,image321,40,image3,12,NA,left,left,TRUE,1592.199999999255,image3,image321
27,3,3,D,memory-resp,#b87942,#FFFFFF,image204,67.4,image339,20,NA,left,left,TRUE,2261.10000000149,image204,image204
27,3,3,D,memory-resp,#FFFFFF,#34be2d,image159,120,image123,4.8,NA,left,left,TRUE,1278.5,image123,image159
27,3,3,D,memory-resp,#FFFFFF,#1a477f,image88,3.5,image109,8,NA,right,left,FALSE,1926.300000000745,image109,image109
27,3,3,D,retrieval,NA,NA,NA,NA,NA,NA,image109,NA,image109,TRUE,1022.5999999977648,image109,image321
27,3,3,D,retrieval,NA,NA,NA,NA,NA,NA,image3,NA,image88,FALSE,2450.2000000029802,image3,image321
27,3,3,D,retrieval,NA,NA,NA,NA,NA,NA,image123,NA,image123,TRUE,1606.9000000022352,image123,image321
27,3,3,D,retrieval,NA,NA,NA,NA,NA,NA,image204,NA,image159,FALSE,2281.199999999255,image204,image321
27,3,4,D,memory-resp,#FFFFFF,#4faf41,image320,170,image424,52.2,NA,left,right,FALSE,2172.39999999851,image424,image320
27,3,4,D,memory-resp,#4681b4,#FFFFFF,image148,30,image313,10,NA,left,left,TRUE,2017.6000000014901,image148,image148
27,3,4,D,memory-resp,#b45e13,#FFFFFF,image188,5,image65,450,NA,right,right,TRUE,2759.300000000745,image188,image65
27,3,4,D,memory-resp,#FFFFFF,#b536b3,image341,5,image334,25,NA,right,right,TRUE,1828,image334,image334
27,3,4,D,retrieval,NA,NA,NA,NA,NA,NA,image334,NA,image334,TRUE,2494.89999999851,image334,image320
27,3,4,D,retrieval,NA,NA,NA,NA,NA,NA,image148,NA,image148,TRUE,2638.10000000149,image148,image320
27,3,4,D,retrieval,NA,NA,NA,NA,NA,NA,image188,NA,image320,FALSE,1775.699999999255,image188,image320
27,3,4,D,retrieval,NA,NA,NA,NA,NA,NA,image424,NA,image188,FALSE,600,image424,image320
27,3,5,D,memory-resp,#FFFFFF,#5d980b,image115,9.4,image83,140,NA,right,left,FALSE,1691,image83,image83
27,3,5,D,memory-resp,#178778,#FFFFFF,image181,999,image428,9,NA,left,right,FALSE,1536.800000000745,image181,image181
27,3,5,D,memory-resp,#FFFFFF,#91221d,image213,0.7,image417,9,NA,right,right,TRUE,1307.699999999255,image417,image417
27,3,5,D,memory-resp,#662e85,#FFFFFF,image165,6.6,image273,999,NA,right,right,TRUE,1707.699999999255,image165,image273
27,3,5,D,retrieval,NA,NA,NA,NA,NA,NA,image417,NA,image181,FALSE,1974.6000000014901,image417,image83
27,3,5,D,retrieval,NA,NA,NA,NA,NA,NA,image165,NA,image165,TRUE,3075.199999999255,image165,image83
27,3,5,D,retrieval,NA,NA,NA,NA,NA,NA,image181,NA,image115,FALSE,1254.4000000022352,image181,image83
27,3,5,D,retrieval,NA,NA,NA,NA,NA,NA,image83,NA,image428,FALSE,1130.5,image83,image83
27,3,6,D,memory-resp,#3f7843,#FFFFFF,image237,8.1,image96,180,NA,right,left,FALSE,2081,image237,image96
27,3,6,D,memory-resp,#FFFFFF,#386980,image331,1.7,image189,400,NA,right,left,FALSE,1350.0999999977648,image189,image189
27,3,6,D,memory-resp,#FFFFFF,#7a442a,image57,2.5,image165,6.6,NA,right,right,TRUE,2132.10000000149,image165,image165
27,3,6,D,memory-resp,#712b82,#FFFFFF,image216,500,image369,200,NA,left,left,TRUE,2830.599999997765,image216,image216
27,3,6,D,retrieval,NA,NA,NA,NA,NA,NA,image165,NA,image165,TRUE,2897.400000002235,image165,image96
27,3,6,D,retrieval,NA,NA,NA,NA,NA,NA,image189,NA,image237,FALSE,1935.9000000022352,image189,image96
27,3,6,D,retrieval,NA,NA,NA,NA,NA,NA,image237,NA,image189,FALSE,3171,image237,image96
27,3,6,D,retrieval,NA,NA,NA,NA,NA,NA,image216,NA,image369,FALSE,1528.3999999985099,image216,image96
27,3,7,D,memory-resp,#FFFFFF,#b611ae,image334,25,image2,6.3,NA,left,left,TRUE,2108.60000000149,image2,image334
27,3,7,D,memory-resp,#aa923c,#FFFFFF,image230,999,image116,14.5,NA,left,right,FALSE,1344,image230,image230
27,3,7,D,memory-resp,#2f9248,#FFFFFF,image424,52.2,image212,8,NA,left,left,TRUE,2319.10000000149,image424,image424
27,3,7,D,memory-resp,#2c5c81,#FFFFFF,image407,5,image412,10.5,NA,right,right,TRUE,1942,image407,image412
27,3,7,D,retrieval,NA,NA,NA,NA,NA,NA,image407,NA,image407,TRUE,2116.10000000149,image407,image334
27,3,7,D,retrieval,NA,NA,NA,NA,NA,NA,image230,NA,image230,TRUE,2578.699999999255,image230,image334
27,3,7,D,retrieval,NA,NA,NA,NA,NA,NA,image2,NA,image2,TRUE,2847.599999997765,image2,image334
27,3,7,D,retrieval,NA,NA,NA,NA,NA,NA,image424,NA,image424,TRUE,2583.5,image424,image334
27,3,8,D,memory-resp,#8da555,#FFFFFF,image144,60,image297,7.9,NA,left,left,TRUE,1896.699999999255,image144,image144
27,3,8,D,memory-resp,#FFFFFF,#6a394a,image94,3.4,image164,13.5,NA,right,right,TRUE,1647.800000000745,image164,image164
27,3,8,D,memory-resp,#FFFFFF,#230ebe,image299,300,image116,14.5,NA,left,right,FALSE,1252.199999999255,image116,image299
27,3,8,D,memory-resp,#FFFFFF,#11e87d,image143,72,image343,16,NA,left,left,TRUE,1548.800000000745,image343,image143
27,3,8,D,retrieval,NA,NA,NA,NA,NA,NA,image144,NA,image144,TRUE,3089.900000002235,image144,image144
27,3,8,D,retrieval,NA,NA,NA,NA,NA,NA,image343,NA,image164,FALSE,2180.89999999851,image343,image144
27,3,8,D,retrieval,NA,NA,NA,NA,NA,NA,image116,NA,image116,TRUE,2687.5,image116,image144
27,3,8,D,retrieval,NA,NA,NA,NA,NA,NA,image164,NA,image343,FALSE,3173.599999997765,image164,image144
27,3,9,D,memory-resp,#7c8e0b,#FFFFFF,image16,999,image32,105,NA,left,right,FALSE,2354.5,image16,image16
27,3,9,D,memory-resp,#2e2caf,#FFFFFF,image309,13.6,image107,200,NA,right,right,TRUE,2511.39999999851,image309,image107
27,3,9,D,memory-resp,#FFFFFF,#951d35,image83,140,image59,0.8,NA,left,left,TRUE,2079.2000000029802,image59,image83
27,3,9,D,memory-resp,#16c56b,#FFFFFF,image279,34.7,image235,3.5,NA,left,right,FALSE,2602.199999999255,image279,image279
27,3,9,D,retrieval,NA,NA,NA,NA,NA,NA,image279,NA,image279,TRUE,1889.800000000745,image279,image16
27,3,9,D,retrieval,NA,NA,NA,NA,NA,NA,image309,NA,image309,TRUE,1879.300000000745,image309,image16
27,3,9,D,retrieval,NA,NA,NA,NA,NA,NA,image59,NA,image59,TRUE,1771.3999999985099,image59,image16
27,3,9,D,retrieval,NA,NA,NA,NA,NA,NA,image16,NA,image16,TRUE,4650.900000002235,image16,image16
27,3,10,D,memory-resp,#318763,#FFFFFF,image182,800,image115,9.4,NA,left,left,TRUE,1566.5,image182,image182
27,3,10,D,memory-resp,#FFFFFF,#363cb0,image139,9.6,image248,300,NA,right,right,TRUE,2086.800000000745,image248,image248
27,3,10,D,memory-resp,#b80f5e,#FFFFFF,image417,9,image204,67.4,NA,right,left,FALSE,1569,image417,image204
27,3,10,D,memory-resp,#b38f23,#FFFFFF,image178,999,image255,4.5,NA,left,left,TRUE,1178,image178,image178
27,3,10,D,retrieval,NA,NA,NA,NA,NA,NA,image178,NA,image178,TRUE,1378.800000000745,image178,image182
27,3,10,D,retrieval,NA,NA,NA,NA,NA,NA,image182,NA,image182,TRUE,3949.5,image182,image182
27,3,10,D,retrieval,NA,NA,NA,NA,NA,NA,image417,NA,image248,FALSE,4340.599999997765,image417,image182
27,3,10,D,retrieval,NA,NA,NA,NA,NA,NA,image248,NA,image248,TRUE,1246.699999999255,image248,image182
27,3,11,D,memory-resp,#162fbb,#FFFFFF,image186,999,image45,13,NA,left,left,TRUE,1357.6000000014901,image186,image186
27,3,11,D,memory-resp,#1edc4d,#FFFFFF,image347,999,image237,8.1,NA,left,left,TRUE,2397.199999999255,image347,image347
27,3,11,D,memory-resp,#87752c,#FFFFFF,image185,10.1,image390,36.8,NA,right,left,FALSE,1983.2999999970198,image185,image390
27,3,11,D,memory-resp,#a34892,#FFFFFF,image431,14.8,image105,7.1,NA,left,left,TRUE,1420.5999999977648,image431,image431
27,3,11,D,retrieval,NA,NA,NA,NA,NA,NA,image431,NA,image431,TRUE,2293.699999999255,image431,image186
27,3,11,D,retrieval,NA,NA,NA,NA,NA,NA,image347,NA,image347,TRUE,2649.699999999255,image347,image186
27,3,11,D,retrieval,NA,NA,NA,NA,NA,NA,image185,NA,image185,TRUE,1672.2999999970198,image185,image186
27,3,11,D,retrieval,NA,NA,NA,NA,NA,NA,image186,NA,image186,TRUE,1259.199999999255,image186,image186
27,3,12,D,memory-resp,#7c1f84,#FFFFFF,image424,52.2,image247,999,NA,right,left,FALSE,1653,image424,image247
27,3,12,D,memory-resp,#FFFFFF,#3b6b2e,image409,28,image189,400,NA,right,left,FALSE,2382.10000000149,image189,image189
27,3,12,D,memory-resp,#FFFFFF,#418b9f,image168,3,image391,20,NA,right,left,FALSE,1833.199999999255,image391,image391
27,3,12,D,memory-resp,#7d4f40,#FFFFFF,image194,240,image373,17.5,NA,left,left,TRUE,2254.5,image194,image194
27,3,12,D,retrieval,NA,NA,NA,NA,NA,NA,image189,NA,image189,TRUE,4022.7999999970198,image189,image247
27,3,12,D,retrieval,NA,NA,NA,NA,NA,NA,image194,NA,image424,FALSE,2185.099999997765,image194,image247
27,3,12,D,retrieval,NA,NA,NA,NA,NA,NA,image424,NA,image391,FALSE,5227.300000000745,image424,image247
27,3,12,D,retrieval,NA,NA,NA,NA,NA,NA,image391,NA,image194,FALSE,2111.5,image391,image247
27,3,13,D,memory-resp,#FFFFFF,#6d219c,image54,7,image13,15,NA,right,left,FALSE,1865.5999999977648,image13,image13
27,3,13,D,memory-resp,#4ca022,#FFFFFF,image336,7,image73,1.6,NA,left,left,TRUE,2786.699999999255,image336,image336
27,3,13,D,memory-resp,#288895,#FFFFFF,image300,800,image213,0.7,NA,left,left,TRUE,1331.8999999985099,image300,image300
27,3,13,D,memory-resp,#FFFFFF,#804d3c,image106,30,image109,8,NA,left,left,TRUE,1760.5999999977648,image109,image106
27,3,13,D,retrieval,NA,NA,NA,NA,NA,NA,image109,NA,image109,TRUE,2691.2999999970198,image109,image13
27,3,13,D,retrieval,NA,NA,NA,NA,NA,NA,image336,NA,image336,TRUE,3590.89999999851,image336,image13
27,3,13,D,retrieval,NA,NA,NA,NA,NA,NA,image13,NA,image73,FALSE,4639.800000000745,image13,image13
27,3,13,D,retrieval,NA,NA,NA,NA,NA,NA,image300,NA,image54,FALSE,1424.6000000014901,image300,image13
27,3,14,D,memory-resp,#1dbcbf,#FFFFFF,image20,4.5,image178,999,NA,right,right,TRUE,1401,image20,image178
27,3,14,D,memory-resp,#6fb00c,#FFFFFF,image330,180,image412,10.5,NA,left,left,TRUE,2022.5,image330,image330
27,3,14,D,memory-resp,#FFFFFF,#5a2593,image263,5.4,image425,700,NA,right,right,TRUE,1985.3999999985099,image425,image425
27,3,14,D,memory-resp,#FFFFFF,#aa2422,image334,25,image222,200,NA,right,right,TRUE,2176.10000000149,image222,image222
27,3,14,D,retrieval,NA,NA,NA,NA,NA,NA,image20,NA,image425,FALSE,2835.599999997765,image20,image178
27,3,14,D,retrieval,NA,NA,NA,NA,NA,NA,image425,NA,image425,TRUE,815.0999999977648,image425,image178
27,3,14,D,retrieval,NA,NA,NA,NA,NA,NA,image222,NA,image222,TRUE,2821.199999999255,image222,image178
27,3,14,D,retrieval,NA,NA,NA,NA,NA,NA,image330,NA,image178,FALSE,2311.5,image330,image178
27,3,15,D,memory-resp,#FFFFFF,#729e3d,image230,999,image90,23,NA,left,left,TRUE,1864.5,image90,image230
27,3,15,D,memory-resp,#4d35bb,#FFFFFF,image245,10.5,image136,33,NA,right,right,TRUE,2363.699999999255,image245,image136
27,3,15,D,memory-resp,#FFFFFF,#a0274d,image173,999,image301,300,NA,left,right,FALSE,2194.5,image301,image173
27,3,15,D,memory-resp,#FFFFFF,#15c1a1,image190,150,image396,34,NA,left,left,TRUE,1830.5,image396,image190
27,3,15,D,retrieval,NA,NA,NA,NA,NA,NA,image90,NA,image396,FALSE,2282.400000002235,image90,image230
27,3,15,D,retrieval,NA,NA,NA,NA,NA,NA,image245,NA,image230,FALSE,9242.800000000745,image245,image230
27,3,15,D,retrieval,NA,NA,NA,NA,NA,NA,image301,NA,image301,TRUE,2462.599999997765,image301,image230
27,3,15,D,retrieval,NA,NA,NA,NA,NA,NA,image396,NA,image90,FALSE,1050,image396,image230
29,1,P1,B,processing,#FFFFFF,#7a4b38,image405,10,image263,5.4,NA,left,left,TRUE,986.9000000357628,NA,NA
29,1,P1,B,processing,#9e519a,#FFFFFF,image399,9,image405,10,NA,right,right,TRUE,1041.800000011921,NA,NA
29,1,P1,B,processing,#0f64ae,#FFFFFF,image328,40,image405,10,NA,right,right,TRUE,883.6999999880791,NA,NA
29,1,P1,B,processing,#188c21,#FFFFFF,image241,90,image405,10,NA,right,right,TRUE,904.6000000238419,NA,NA
29,1,P2,B,processing,#FFFFFF,#3ebb79,image405,10,image78,999,NA,left,left,TRUE,1245.5,NA,NA
29,1,P2,B,processing,#b4138c,#FFFFFF,image261,9.5,image405,10,NA,right,right,TRUE,906.3999999761581,NA,NA
29,1,P2,B,processing,#1041bc,#FFFFFF,image156,6.5,image405,10,NA,right,right,TRUE,816.3000000119209,NA,NA
29,1,P2,B,processing,#a99f14,#FFFFFF,image174,999,image405,10,NA,right,right,TRUE,880.5,NA,NA
29,1,P3,B,processing,#379ab9,#FFFFFF,image279,34.7,image405,10,NA,right,right,TRUE,1088.8999999761581,NA,NA
29,1,P3,B,processing,#7811ac,#FFFFFF,image428,9,image405,10,NA,right,right,TRUE,553.3000000119209,NA,NA
29,1,P3,B,processing,#FFFFFF,#6cc035,image405,10,image146,95,NA,left,left,TRUE,991.8999999761581,NA,NA
29,1,P3,B,processing,#b23a34,#FFFFFF,image90,23,image405,10,NA,right,right,TRUE,1360,NA,NA
29,1,P4,B,processing,#2be316,#FFFFFF,image265,9.6,image405,10,NA,right,right,TRUE,1290.3999999761581,NA,NA
29,1,P4,B,processing,#FFFFFF,#a510b2,image405,10,image194,240,NA,left,left,TRUE,1232.199999988079,NA,NA
29,1,P4,B,processing,#2e7fa8,#FFFFFF,image411,3.9,image405,10,NA,right,right,TRUE,904,NA,NA
29,1,P4,B,processing,#b85223,#FFFFFF,image317,3,image405,10,NA,right,right,TRUE,853.7999999523163,NA,NA
29,1,P5,B,processing,#FFFFFF,#792a89,image405,10,image318,9.5,NA,left,left,TRUE,1480.8999999761581,NA,NA
29,1,P5,B,processing,#FFFFFF,#975e3b,image405,10,image408,7,NA,left,left,TRUE,924.5,NA,NA
29,1,P5,B,processing,#FFFFFF,#4d9354,image405,10,image355,443.2,NA,left,left,TRUE,529.6000000238419,NA,NA
29,1,P5,B,processing,#2c618c,#FFFFFF,image113,210,image405,10,NA,right,right,TRUE,1082.3999999761581,NA,NA
29,1,P6,B,processing,#457ab0,#FFFFFF,image300,800,image405,10,NA,right,right,TRUE,990.5,NA,NA
29,1,P6,B,processing,#11c022,#FFFFFF,image164,13.5,image405,10,NA,right,right,TRUE,735.7999999523163,NA,NA
29,1,P6,B,processing,#cc24cc,#FFFFFF,image314,6.5,image405,10,NA,right,right,TRUE,709.5,NA,NA
29,1,P6,B,processing,#FFFFFF,#9d6234,image405,10,image376,40,NA,left,left,TRUE,1242.8999999761581,NA,NA
29,1,P7,B,processing,#3e9d2f,#FFFFFF,image264,18.6,image405,10,NA,right,right,TRUE,1030.300000011921,NA,NA
29,1,P7,B,processing,#FFFFFF,#3c72b4,image405,10,image7,3,NA,left,left,TRUE,1106.699999988079,NA,NA
29,1,P7,B,processing,#6d3b69,#FFFFFF,image73,1.6,image405,10,NA,right,right,TRUE,1046.8999999761581,NA,NA
29,1,P7,B,processing,#FFFFFF,#926535,image405,10,image165,6.6,NA,left,left,TRUE,1056.300000011921,NA,NA
29,1,P8,B,processing,#FFFFFF,#967f4f,image405,10,image313,10,NA,left,left,TRUE,989,NA,NA
29,1,P8,B,processing,#1cb540,#FFFFFF,image16,999,image405,10,NA,right,right,TRUE,956.6000000238419,NA,NA
29,1,P8,B,processing,#a7398a,#FFFFFF,image180,14,image405,10,NA,right,right,TRUE,529.5,NA,NA
29,1,P8,B,processing,#FFFFFF,#464686,image405,10,image362,24.2,NA,left,left,TRUE,1036.6000000238419,NA,NA
29,1,P9,B,processing,#9f236f,#FFFFFF,image134,7,image405,10,NA,right,right,TRUE,1120.3999999761581,NA,NA
29,1,P9,B,processing,#FFFFFF,#2d8b4e,image405,10,image179,15.5,NA,left,left,TRUE,1053.800000011921,NA,NA
29,1,P9,B,processing,#3e62b6,#FFFFFF,image176,170,image405,10,NA,right,right,TRUE,994.0999999642372,NA,NA
29,1,P9,B,processing,#FFFFFF,#948733,image405,10,image2,6.3,NA,left,left,TRUE,1011.5,NA,NA
29,1,P10,B,processing,#FFFFFF,#ce1c22,image405,10,image369,200,NA,left,left,TRUE,1088.8999999761581,NA,NA
29,1,P10,B,processing,#FFFFFF,#108e73,image405,10,image111,8,NA,left,left,TRUE,595.1999999880791,NA,NA
29,1,P10,B,processing,#FFFFFF,#97c60c,image405,10,image248,300,NA,left,left,TRUE,484.7000000476837,NA,NA
29,1,P10,B,processing,#5f4488,#FFFFFF,image60,165,image405,10,NA,right,right,TRUE,1126.300000011921,NA,NA
29,1,P11,B,processing,#388a81,#FFFFFF,image305,0.2,image405,10,NA,right,right,TRUE,976,NA,NA
29,1,P11,B,processing,#FFFFFF,#6fbe37,image405,10,image353,5,NA,left,left,TRUE,1148.9000000357628,NA,NA
29,1,P11,B,processing,#913327,#FFFFFF,image140,2,image405,10,NA,right,right,TRUE,1034.800000011921,NA,NA
29,1,P11,B,processing,#7220cb,#FFFFFF,image288,34,image405,10,NA,right,right,TRUE,922.1999999880791,NA,NA
29,1,P12,B,processing,#FFFFFF,#7f492e,image405,10,image204,67.4,NA,left,left,TRUE,1164.199999988079,NA,NA
29,1,P12,B,processing,#FFFFFF,#406991,image405,10,image290,8.5,NA,left,left,TRUE,798.5999999642372,NA,NA
29,1,P12,B,processing,#FFFFFF,#58a451,image405,10,image401,12,NA,left,left,TRUE,534.7000000476837,NA,NA
29,1,P12,B,processing,#7b388a,#FFFFFF,image363,11.3,image405,10,NA,right,right,TRUE,1342.3999999761581,NA,NA
29,1,P13,B,processing,#a48541,#FFFFFF,image335,6.3,image405,10,NA,right,right,TRUE,1041.199999988079,NA,NA
29,1,P13,B,processing,#b81ea6,#FFFFFF,image182,800,image405,10,NA,right,right,TRUE,856.6000000238419,NA,NA
29,1,P13,B,processing,#3a8132,#FFFFFF,image208,11,image405,10,NA,right,right,TRUE,578.5,NA,NA
29,1,P13,B,processing,#0f97e6,#FFFFFF,image171,9.6,image405,10,NA,right,right,TRUE,527.5999999642372,NA,NA
29,1,P14,B,processing,#FFFFFF,#d41cbf,image405,10,image259,30,NA,left,left,TRUE,987,NA,NA
29,1,P14,B,processing,#FFFFFF,#1876c9,image405,10,image63,800,NA,left,left,TRUE,974.6000000238419,NA,NA
29,1,P14,B,processing,#7c5422,#FFFFFF,image28,10,image405,10,NA,right,right,TRUE,1248.300000011921,NA,NA
29,1,P14,B,processing,#357632,#FFFFFF,image202,2.9,image405,10,NA,right,right,TRUE,579.1999999880791,NA,NA
29,1,P15,B,processing,#FFFFFF,#a1c71a,image405,10,image225,22,NA,left,left,TRUE,994,NA,NA
29,1,P15,B,processing,#FFFFFF,#31b48d,image405,10,image95,1,NA,left,left,TRUE,837.0999999642372,NA,NA
29,1,P15,B,processing,#863748,#FFFFFF,image144,60,image405,10,NA,right,right,TRUE,1201.800000011921,NA,NA
29,1,P15,B,processing,#5c14a9,#FFFFFF,image126,11,image405,10,NA,right,right,TRUE,603.8999999761581,NA,NA
29,1,P16,B,processing,#472895,#FFFFFF,image410,7,image405,10,NA,right,right,TRUE,1083,NA,NA
29,1,P16,B,processing,#44a279,#FFFFFF,image94,3.4,image405,10,NA,right,right,TRUE,570,NA,NA
29,1,P16,B,processing,#FFFFFF,#7f2e57,image405,10,image334,25,NA,left,left,TRUE,1128.2999999523163,NA,NA
29,1,P16,B,processing,#FFFFFF,#819211,image405,10,image90,23,NA,left,left,TRUE,1027.1000000238419,NA,NA
29,1,P17,B,processing,#339509,#FFFFFF,image148,30,image405,10,NA,right,right,TRUE,1404.5999999642372,NA,NA
29,1,P17,B,processing,#FFFFFF,#603286,image405,10,image217,8.5,NA,left,left,TRUE,1060.6000000238419,NA,NA
29,1,P17,B,processing,#9f5a32,#FFFFFF,image226,70.2,image405,10,NA,right,right,TRUE,1151.4000000357628,NA,NA
29,1,P17,B,processing,#FFFFFF,#388eb2,image405,10,image43,18,NA,left,left,TRUE,1142.699999988079,NA,NA
29,1,P18,B,processing,#89c733,#FFFFFF,image303,20,image405,10,NA,right,right,TRUE,1160.199999988079,NA,NA
29,1,P18,B,processing,#573d7f,#FFFFFF,image198,6.8,image405,10,NA,right,right,TRUE,560.9000000357628,NA,NA
29,1,P18,B,processing,#FFFFFF,#e41138,image405,10,image276,90,NA,left,left,TRUE,1165.3999999761581,NA,NA
29,1,P18,B,processing,#208364,#FFFFFF,image54,7,image405,10,NA,right,right,TRUE,1310.5,NA,NA
29,1,P19,B,processing,#FFFFFF,#366572,image405,10,image153,40.3,NA,left,left,TRUE,1109.199999988079,NA,NA
29,1,P19,B,processing,#FFFFFF,#4dae24,image405,10,image415,20,NA,left,left,TRUE,550.7999999523163,NA,NA
29,1,P19,B,processing,#FFFFFF,#dc4d1e,image405,10,image323,25,NA,left,left,TRUE,533.5,NA,NA
29,1,P19,B,processing,#FFFFFF,#693777,image405,10,image78,999,NA,left,left,TRUE,543.5,NA,NA
29,1,P20,B,processing,#FFFFFF,#ba7712,image405,10,image222,200,NA,left,left,TRUE,875.6999999880791,NA,NA
29,1,P20,B,processing,#723678,#FFFFFF,image37,4.2,image405,10,NA,right,right,TRUE,1088.5,NA,NA
29,1,P20,B,processing,#FFFFFF,#0c49bb,image405,10,image329,8,NA,left,left,TRUE,1182.1000000238419,NA,NA
29,1,P20,B,processing,#27912c,#FFFFFF,image178,999,image405,10,NA,right,right,TRUE,1116.3999999761581,NA,NA
29,1,P21,B,processing,#FFFFFF,#5d9220,image405,10,image92,4,NA,left,left,TRUE,965.9000000357628,NA,NA
29,1,P21,B,processing,#a65b54,#FFFFFF,image73,1.6,image405,10,NA,right,right,TRUE,1163.5,NA,NA
29,1,P21,B,processing,#5d2e70,#FFFFFF,image394,10,image405,10,NA,right,right,TRUE,906.3000000119209,NA,NA
29,1,P21,B,processing,#FFFFFF,#3499b2,image405,10,image392,160,NA,left,left,TRUE,1046.4000000357628,NA,NA
29,1,P22,B,processing,#FFFFFF,#886049,image405,10,image273,999,NA,left,left,TRUE,1099.2000000476837,NA,NA
29,1,P22,B,processing,#FFFFFF,#099509,image405,10,image78,999,NA,left,left,TRUE,847.8999999761581,NA,NA
29,1,P22,B,processing,#FFFFFF,#325686,image405,10,image133,300,NA,left,left,TRUE,579,NA,NA
29,1,P22,B,processing,#8d1187,#FFFFFF,image232,180,image405,10,NA,right,right,TRUE,1175.1000000238419,NA,NA
29,1,P23,B,processing,#FFFFFF,#a69726,image405,10,image298,12.4,NA,left,left,TRUE,974.5,NA,NA
29,1,P23,B,processing,#FFFFFF,#a25384,image405,10,image102,700,NA,left,left,TRUE,855.8999999761581,NA,NA
29,1,P23,B,processing,#0d42a5,#FFFFFF,image65,450,image405,10,NA,right,right,TRUE,1223.5,NA,NA
29,1,P23,B,processing,#FFFFFF,#21a145,image405,10,image243,27.1,NA,left,left,TRUE,927.8999999761581,NA,NA
29,1,P24,B,processing,#FFFFFF,#cc2a1e,image405,10,image177,15,NA,left,left,TRUE,1023,NA,NA
29,1,P24,B,processing,#2ead94,#FFFFFF,image414,55,image405,10,NA,right,right,TRUE,1184.199999988079,NA,NA
29,1,P24,B,processing,#5d7a33,#FFFFFF,image287,7,image405,10,NA,right,right,TRUE,829.8999999761581,NA,NA
29,1,P24,B,processing,#FFFFFF,#724497,image405,10,image273,999,NA,left,left,TRUE,1323.3999999761581,NA,NA
29,1,P25,B,processing,#FFFFFF,#1333a4,image405,10,image232,180,NA,left,left,TRUE,932.6000000238419,NA,NA
29,1,P25,B,processing,#3d9951,#FFFFFF,image229,25,image405,10,NA,right,right,TRUE,1023.6999999880791,NA,NA
29,1,P25,B,processing,#c42795,#FFFFFF,image168,3,image405,10,NA,right,right,TRUE,855.2000000476837,NA,NA
29,1,P25,B,processing,#FFFFFF,#ba9236,image405,10,image250,34,NA,left,left,TRUE,1023.5,NA,NA
29,1,1,B,memory-resp,#FFFFFF,#1eda10,image405,10,image263,5.4,NA,left,left,TRUE,1265.5,image263,image405
29,1,1,B,memory-resp,#FFFFFF,#72653b,image405,10,image420,150,NA,left,left,TRUE,1639.2999999523163,image420,image405
29,1,1,B,memory-resp,#3d7ab3,#FFFFFF,image172,8,image405,10,NA,right,right,TRUE,1860.800000011921,image172,image405
29,1,1,B,memory-resp,#a61c93,#FFFFFF,image189,400,image405,10,NA,right,right,TRUE,1133.7000000476837,image189,image405
29,1,1,B,retrieval,NA,NA,NA,NA,NA,NA,image263,NA,image263,TRUE,2222,image263,image405
29,1,1,B,retrieval,NA,NA,NA,NA,NA,NA,image420,NA,image420,TRUE,3165,image420,image405
29,1,1,B,retrieval,NA,NA,NA,NA,NA,NA,image172,NA,image172,TRUE,2968.5,image172,image405
29,1,1,B,retrieval,NA,NA,NA,NA,NA,NA,image189,NA,image189,TRUE,3940.099999964237,image189,image405
29,1,2,B,memory-resp,#c90d91,#FFFFFF,image8,96,image405,10,NA,right,right,TRUE,1278.0999999642372,image8,image405
29,1,2,B,memory-resp,#FFFFFF,#246da8,image405,10,image182,800,NA,left,left,TRUE,1274.7000000476837,image182,image405
29,1,2,B,memory-resp,#FFFFFF,#1b8d2c,image405,10,image315,1.5,NA,left,left,TRUE,949.5,image315,image405
29,1,2,B,memory-resp,#FFFFFF,#92762f,image405,10,image177,15,NA,left,left,TRUE,989.4000000357628,image177,image405
29,1,2,B,retrieval,NA,NA,NA,NA,NA,NA,image177,NA,image177,TRUE,3252.400000035763,image177,image405
29,1,2,B,retrieval,NA,NA,NA,NA,NA,NA,image8,NA,image8,TRUE,1728.199999988079,image8,image405
29,1,2,B,retrieval,NA,NA,NA,NA,NA,NA,image182,NA,image182,TRUE,4322.099999964237,image182,image405
29,1,2,B,retrieval,NA,NA,NA,NA,NA,NA,image315,NA,image315,TRUE,2275.5,image315,image405
29,1,3,B,memory-resp,#ac6435,#FFFFFF,image265,9.6,image405,10,NA,right,right,TRUE,1361,image265,image405
29,1,3,B,memory-resp,#821ea9,#FFFFFF,image408,7,image405,10,NA,right,right,TRUE,2011.5,image408,image405
29,1,3,B,memory-resp,#FFFFFF,#1d6886,image405,10,image145,10,NA,left,left,TRUE,1298.3999999761581,image145,image405
29,1,3,B,memory-resp,#FFFFFF,#396b38,image405,10,image230,999,NA,left,left,TRUE,1124.5,image230,image405
29,1,3,B,retrieval,NA,NA,NA,NA,NA,NA,image145,NA,image230,FALSE,2788.100000023842,image145,image405
29,1,3,B,retrieval,NA,NA,NA,NA,NA,NA,image230,NA,image229,FALSE,5233.600000023842,image230,image405
29,1,3,B,retrieval,NA,NA,NA,NA,NA,NA,image265,NA,image265,TRUE,1855.199999988079,image265,image405
29,1,3,B,retrieval,NA,NA,NA,NA,NA,NA,image408,NA,image229,FALSE,3750.600000023842,image408,image405
29,1,4,B,memory-resp,#FFFFFF,#c6270c,image405,10,image160,0.7,NA,left,left,TRUE,1067.300000011921,image160,image405
29,1,4,B,memory-resp,#FFFFFF,#2a84a7,image405,10,image141,30,NA,left,left,TRUE,1111.1000000238419,image141,image405
29,1,4,B,memory-resp,#FFFFFF,#248712,image405,10,image427,40,NA,left,left,TRUE,1098.5999999642372,image427,image405
29,1,4,B,memory-resp,#FFFFFF,#7d12ab,image405,10,image155,14.5,NA,left,left,TRUE,805.1000000238419,image155,image405
29,1,4,B,retrieval,NA,NA,NA,NA,NA,NA,image141,NA,image141,TRUE,3683.7000000476837,image141,image405
29,1,4,B,retrieval,NA,NA,NA,NA,NA,NA,image427,NA,image427,TRUE,3879.199999988079,image427,image405
29,1,4,B,retrieval,NA,NA,NA,NA,NA,NA,image160,NA,image155,FALSE,4683.799999952316,image160,image405
29,1,4,B,retrieval,NA,NA,NA,NA,NA,NA,image155,NA,image155,TRUE,2521.599999964237,image155,image405
29,1,5,B,memory-resp,#FFFFFF,#9a3c47,image405,10,image115,9.4,NA,left,left,TRUE,1289.2999999523163,image115,image405
29,1,5,B,memory-resp,#FFFFFF,#316768,image405,10,image309,13.6,NA,left,left,TRUE,1259.6000000238419,image309,image405
29,1,5,B,memory-resp,#4b6b33,#FFFFFF,image128,7.7,image405,10,NA,right,right,TRUE,1324.3999999761581,image128,image405
29,1,5,B,memory-resp,#5328a4,#FFFFFF,image137,21,image405,10,NA,right,right,TRUE,879.4000000357628,image137,image405
29,1,5,B,retrieval,NA,NA,NA,NA,NA,NA,image128,NA,image115,FALSE,3167.900000035763,image128,image405
29,1,5,B,retrieval,NA,NA,NA,NA,NA,NA,image115,NA,image309,FALSE,4630.200000047684,image115,image405
29,1,5,B,retrieval,NA,NA,NA,NA,NA,NA,image309,NA,image115,FALSE,2909.199999988079,image309,image405
29,1,5,B,retrieval,NA,NA,NA,NA,NA,NA,image137,NA,image137,TRUE,4833.099999964237,image137,image405
29,1,6,B,memory-resp,#FFFFFF,#4ba04f,image405,10,image139,9.6,NA,left,left,TRUE,1400.0999999642372,image139,image405
29,1,6,B,memory-resp,#FFFFFF,#9d811b,image405,10,image335,6.3,NA,left,left,TRUE,1298.8999999761581,image335,image405
29,1,6,B,memory-resp,#FFFFFF,#3950c0,image405,10,image25,40,NA,left,left,TRUE,777.1000000238419,image25,image405
29,1,6,B,memory-resp,#FFFFFF,#7c2d76,image405,10,image57,2.5,NA,left,left,TRUE,983.8999999761581,image57,image405
29,1,6,B,retrieval,NA,NA,NA,NA,NA,NA,image139,NA,image139,TRUE,1379.199999988079,image139,image405
29,1,6,B,retrieval,NA,NA,NA,NA,NA,NA,image335,NA,image25,FALSE,2427.400000035763,image335,image405
29,1,6,B,retrieval,NA,NA,NA,NA,NA,NA,image25,NA,image57,FALSE,2976.5,image25,image405
29,1,6,B,retrieval,NA,NA,NA,NA,NA,NA,image57,NA,image57,TRUE,3759.2000000476837,image57,image405
29,1,7,B,memory-resp,#7a2458,#FFFFFF,image362,24.2,image405,10,NA,right,right,TRUE,985.6000000238419,image362,image405
29,1,7,B,memory-resp,#FFFFFF,#2cc985,image405,10,image140,2,NA,left,left,TRUE,1248.2000000476837,image140,image405
29,1,7,B,memory-resp,#FFFFFF,#260fa9,image405,10,image88,3.5,NA,left,left,TRUE,1022.4000000357628,image88,image405
29,1,7,B,memory-resp,#FFFFFF,#a5bf31,image405,10,image139,9.6,NA,left,left,TRUE,984.8000000119209,image139,image405
29,1,7,B,retrieval,NA,NA,NA,NA,NA,NA,image140,NA,image19,FALSE,2031.5,image140,image405
29,1,7,B,retrieval,NA,NA,NA,NA,NA,NA,image88,NA,image19,FALSE,1400.800000011921,image88,image405
29,1,7,B,retrieval,NA,NA,NA,NA,NA,NA,image362,NA,image139,FALSE,2959.199999988079,image362,image405
29,1,7,B,retrieval,NA,NA,NA,NA,NA,NA,image139,NA,image362,FALSE,3131.300000011921,image139,image405
29,1,8,B,memory-resp,#FFFFFF,#8a1c15,image405,10,image133,300,NA,left,left,TRUE,1255,image133,image405
29,1,8,B,memory-resp,#FFFFFF,#50723b,image405,10,image313,10,NA,left,left,TRUE,744.5,image313,image405
29,1,8,B,memory-resp,#851fbd,#FFFFFF,image321,40,image405,10,NA,right,right,TRUE,1447.2999999523163,image321,image405
29,1,8,B,memory-resp,#FFFFFF,#267b8c,image405,10,image431,14.8,NA,left,left,TRUE,1310.3999999761581,image431,image405
29,1,8,B,retrieval,NA,NA,NA,NA,NA,NA,image133,NA,image133,TRUE,2468.699999988079,image133,image405
29,1,8,B,retrieval,NA,NA,NA,NA,NA,NA,image321,NA,image431,FALSE,1825.5999999642372,image321,image405
29,1,8,B,retrieval,NA,NA,NA,NA,NA,NA,image313,NA,image313,TRUE,1843,image313,image405
29,1,8,B,retrieval,NA,NA,NA,NA,NA,NA,image431,NA,image431,TRUE,1428.8999999761581,image431,image405
29,1,9,B,memory-resp,#FFFFFF,#284877,image405,10,image168,3,NA,left,left,TRUE,1382.4000000357628,image168,image405
29,1,9,B,memory-resp,#6c3360,#FFFFFF,image371,7.1,image405,10,NA,right,right,TRUE,1332.8999999761581,image371,image405
29,1,9,B,memory-resp,#FFFFFF,#82603a,image405,10,image53,6.4,NA,left,left,TRUE,975.3999999761581,image53,image405
29,1,9,B,memory-resp,#FFFFFF,#2e7a30,image405,10,image136,33,NA,left,left,TRUE,1319.699999988079,image136,image405
29,1,9,B,retrieval,NA,NA,NA,NA,NA,NA,image168,NA,image65,FALSE,2107.099999964237,image168,image405
29,1,9,B,retrieval,NA,NA,NA,NA,NA,NA,image371,NA,image411,FALSE,2537.399999976158,image371,image405
29,1,9,B,retrieval,NA,NA,NA,NA,NA,NA,image53,NA,image53,TRUE,1638.3999999761581,image53,image405
29,1,9,B,retrieval,NA,NA,NA,NA,NA,NA,image136,NA,image65,FALSE,5214.599999964237,image136,image405
29,1,10,B,memory-resp,#b12533,#FFFFFF,image304,18,image405,10,NA,right,right,TRUE,1517,image304,image405
29,1,10,B,memory-resp,#FFFFFF,#5c4280,image405,10,image253,50,NA,left,left,TRUE,1254.1000000238419,image253,image405
29,1,10,B,memory-resp,#25b9d0,#FFFFFF,image237,8.1,image405,10,NA,right,right,TRUE,1246.5999999642372,image237,image405
29,1,10,B,memory-resp,#5e9424,#FFFFFF,image223,170,image405,10,NA,right,right,TRUE,936.3000000119209,image223,image405
29,1,10,B,retrieval,NA,NA,NA,NA,NA,NA,image253,NA,image123,FALSE,2717.600000023842,image253,image405
29,1,10,B,retrieval,NA,NA,NA,NA,NA,NA,image304,NA,image304,TRUE,1928.199999988079,image304,image405
29,1,10,B,retrieval,NA,NA,NA,NA,NA,NA,image223,NA,image223,TRUE,1793.699999988079,image223,image405
29,1,10,B,retrieval,NA,NA,NA,NA,NA,NA,image237,NA,image237,TRUE,2425.699999988079,image237,image405
29,1,11,B,memory-resp,#FFFFFF,#143b94,image405,10,image72,3,NA,left,left,TRUE,867.5,image72,image405
29,1,11,B,memory-resp,#FFFFFF,#9c842b,image405,10,image288,34,NA,left,left,TRUE,987.8999999761581,image288,image405
29,1,11,B,memory-resp,#FFFFFF,#21ab5f,image405,10,image160,0.7,NA,left,left,TRUE,1255,image160,image405
29,1,11,B,memory-resp,#b3236b,#FFFFFF,image173,999,image405,10,NA,right,right,TRUE,1208.800000011921,image173,image405
29,1,11,B,retrieval,NA,NA,NA,NA,NA,NA,image173,NA,image173,TRUE,2354.900000035763,image173,image405
29,1,11,B,retrieval,NA,NA,NA,NA,NA,NA,image72,NA,image72,TRUE,2268.699999988079,image72,image405
29,1,11,B,retrieval,NA,NA,NA,NA,NA,NA,image160,NA,image73,FALSE,3465.5,image160,image405
29,1,11,B,retrieval,NA,NA,NA,NA,NA,NA,image288,NA,image288,TRUE,1065.4000000357628,image288,image405
29,1,12,B,memory-resp,#0fa935,#FFFFFF,image343,16,image405,10,NA,right,right,TRUE,1229.300000011921,image343,image405
29,1,12,B,memory-resp,#FFFFFF,#4d64a3,image405,10,image125,5.1,NA,left,left,TRUE,1137.300000011921,image125,image405
29,1,12,B,memory-resp,#811d72,#FFFFFF,image285,240,image405,10,NA,right,right,TRUE,1025.800000011921,image285,image405
29,1,12,B,memory-resp,#FFFFFF,#806e23,image405,10,image195,160,NA,left,left,TRUE,1213.2999999523163,image195,image405
29,1,12,B,retrieval,NA,NA,NA,NA,NA,NA,image195,NA,image285,FALSE,2068.100000023842,image195,image405
29,1,12,B,retrieval,NA,NA,NA,NA,NA,NA,image285,NA,image195,FALSE,3747.099999964237,image285,image405
29,1,12,B,retrieval,NA,NA,NA,NA,NA,NA,image343,NA,image343,TRUE,3046.800000011921,image343,image405
29,1,12,B,retrieval,NA,NA,NA,NA,NA,NA,image125,NA,image343,FALSE,273.19999998807907,image125,image405
29,1,13,B,memory-resp,#FFFFFF,#871233,image405,10,image138,2,NA,left,left,TRUE,1544.2000000476837,image138,image405
29,1,13,B,memory-resp,#FFFFFF,#43b67f,image405,10,image378,13,NA,left,left,TRUE,1213.199999988079,image378,image405
29,1,13,B,memory-resp,#282687,#FFFFFF,image241,90,image405,10,NA,right,right,TRUE,1415.800000011921,image241,image405
29,1,13,B,memory-resp,#878512,#FFFFFF,image92,4,image405,10,NA,right,right,TRUE,1050.199999988079,image92,image405
29,1,13,B,retrieval,NA,NA,NA,NA,NA,NA,image378,NA,image378,TRUE,2111.100000023842,image378,image405
29,1,13,B,retrieval,NA,NA,NA,NA,NA,NA,image92,NA,image241,FALSE,4672.300000011921,image92,image405
29,1,13,B,retrieval,NA,NA,NA,NA,NA,NA,image241,NA,image198,FALSE,2644.899999976158,image241,image405
29,1,13,B,retrieval,NA,NA,NA,NA,NA,NA,image138,NA,image92,FALSE,2127,image138,image405
29,1,14,B,memory-resp,#FFFFFF,#c317d3,image405,10,image255,4.5,NA,left,left,TRUE,1053.800000011921,image255,image405
29,1,14,B,memory-resp,#d03516,#FFFFFF,image260,999,image405,10,NA,right,right,TRUE,1048.300000011921,image260,image405
29,1,14,B,memory-resp,#FFFFFF,#3e98bb,image405,10,image150,17.7,NA,left,left,TRUE,1025.5,image150,image405
29,1,14,B,memory-resp,#34732b,#FFFFFF,image391,20,image405,10,NA,right,right,TRUE,1189.1000000238419,image391,image405
29,1,14,B,retrieval,NA,NA,NA,NA,NA,NA,image260,NA,image57,FALSE,3570,image260,image405
29,1,14,B,retrieval,NA,NA,NA,NA,NA,NA,image391,NA,image255,FALSE,2092.800000011921,image391,image405
29,1,14,B,retrieval,NA,NA,NA,NA,NA,NA,image150,NA,image150,TRUE,1138.300000011921,image150,image405
29,1,14,B,retrieval,NA,NA,NA,NA,NA,NA,image255,NA,image207,FALSE,1997.9000000357628,image255,image405
29,1,15,B,memory-resp,#aa1336,#FFFFFF,image393,204,image405,10,NA,right,right,TRUE,1334.699999988079,image393,image405
29,1,15,B,memory-resp,#FFFFFF,#4f9677,image405,10,image156,6.5,NA,left,left,TRUE,1073.9000000357628,image156,image405
29,1,15,B,memory-resp,#39129b,#FFFFFF,image254,140,image405,10,NA,right,right,TRUE,982,image254,image405
29,1,15,B,memory-resp,#FFFFFF,#a0a031,image405,10,image255,4.5,NA,left,left,TRUE,1118.3999999761581,image255,image405
29,1,15,B,retrieval,NA,NA,NA,NA,NA,NA,image393,NA,image389,FALSE,2024.0999999642372,image393,image405
29,1,15,B,retrieval,NA,NA,NA,NA,NA,NA,image254,NA,image255,FALSE,3726.900000035763,image254,image405
29,1,15,B,retrieval,NA,NA,NA,NA,NA,NA,image156,NA,image389,FALSE,3032.399999976158,image156,image405
29,1,15,B,retrieval,NA,NA,NA,NA,NA,NA,image255,NA,image255,TRUE,2735,image255,image405
29,2,P1,D,processing,#FFFFFF,#bc7a38,image415,20,image117,10,NA,left,left,TRUE,1489.199999988079,NA,NA
29,2,P1,D,processing,#34c53e,#FFFFFF,image188,5,image207,24,NA,right,left,FALSE,1872.8999999761581,NA,NA
29,2,P1,D,processing,#FFFFFF,#2069b1,image35,999,image56,80,NA,left,left,TRUE,1631.6000000238419,NA,NA
29,2,P1,D,processing,#FFFFFF,#863c84,image358,16.2,image330,180,NA,right,left,FALSE,1373.4000000357628,NA,NA
29,2,P2,D,processing,#FFFFFF,#27b9b7,image59,0.8,image286,270,NA,right,right,TRUE,2193.5,NA,NA
29,2,P2,D,processing,#FFFFFF,#6b932f,image152,180,image363,11.3,NA,left,left,TRUE,1603.5,NA,NA
29,2,P2,D,processing,#FFFFFF,#bf2239,image258,7,image106,30,NA,right,right,TRUE,1548.199999988079,NA,NA
29,2,P2,D,processing,#530a8f,#FFFFFF,image153,40.3,image378,13,NA,left,left,TRUE,1483.300000011921,NA,NA
29,2,P3,D,processing,#633d85,#FFFFFF,image429,40,image391,20,NA,left,left,TRUE,1301.0999999642372,NA,NA
29,2,P3,D,processing,#FFFFFF,#35797e,image186,999,image201,20,NA,left,left,TRUE,1493.9000000357628,NA,NA
29,2,P3,D,processing,#FFFFFF,#508316,image124,170,image273,999,NA,right,right,TRUE,2079.399999976158,NA,NA
29,2,P3,D,processing,#FFFFFF,#d80e1b,image399,9,image390,36.8,NA,right,right,TRUE,1491.5999999642372,NA,NA
29,2,P4,D,processing,#b26e15,#FFFFFF,image302,11,image294,2.5,NA,left,left,TRUE,1185.4000000357628,NA,NA
29,2,P4,D,processing,#154be0,#FFFFFF,image113,210,image174,999,NA,right,right,TRUE,1312.9000000357628,NA,NA
29,2,P4,D,processing,#48935a,#FFFFFF,image330,180,image26,45,NA,left,left,TRUE,1618.5,NA,NA
29,2,P4,D,processing,#FFFFFF,#985295,image347,999,image156,6.5,NA,left,left,TRUE,1322.0999999642372,NA,NA
29,2,P5,D,processing,#981625,#FFFFFF,image214,80,image113,210,NA,right,left,FALSE,1310.2000000476837,NA,NA
29,2,P5,D,processing,#368c7d,#FFFFFF,image136,33,image76,5.5,NA,left,left,TRUE,1142.699999988079,NA,NA
29,2,P5,D,processing,#FFFFFF,#540e9a,image274,3.9,image243,27.1,NA,right,left,FALSE,1277.800000011921,NA,NA
29,2,P5,D,processing,#67ac2a,#FFFFFF,image250,34,image133,300,NA,right,left,FALSE,1413.800000011921,NA,NA
29,2,P6,D,processing,#889929,#FFFFFF,image64,960,image15,12,NA,left,left,TRUE,1270.800000011921,NA,NA
29,2,P6,D,processing,#7a1f3c,#FFFFFF,image335,6.3,image409,28,NA,right,right,TRUE,1435.699999988079,NA,NA
29,2,P6,D,processing,#5034ad,#FFFFFF,image117,10,image269,45,NA,right,right,TRUE,1287.3999999761581,NA,NA
29,2,P6,D,processing,#3eac8d,#FFFFFF,image102,700,image149,29.3,NA,left,left,TRUE,1309.2999999523163,NA,NA
29,2,P7,D,processing,#61158a,#FFFFFF,image276,90,image365,5,NA,left,left,TRUE,1184.199999988079,NA,NA
29,2,P7,D,processing,#ce0d1d,#FFFFFF,image119,0.4,image109,8,NA,right,left,FALSE,1374.0999999642372,NA,NA
29,2,P7,D,processing,#69a550,#FFFFFF,image391,20,image377,8.7,NA,left,left,TRUE,1132.3999999761581,NA,NA
29,2,P7,D,processing,#FFFFFF,#1bd0ca,image201,20,image27,6,NA,left,left,TRUE,1166.5,NA,NA
29,2,P8,D,processing,#FFFFFF,#951d3d,image250,34,image287,7,NA,left,right,FALSE,1405.5999999642372,NA,NA
29,2,P8,D,processing,#68a126,#FFFFFF,image416,400,image152,180,NA,left,right,FALSE,1327.699999988079,NA,NA
29,2,P8,D,processing,#3d1490,#FFFFFF,image86,4.5,image305,0.2,NA,left,left,TRUE,1389.800000011921,NA,NA
29,2,P8,D,processing,#387069,#FFFFFF,image55,75,image208,11,NA,left,left,TRUE,994.4000000357628,NA,NA
29,2,P9,D,processing,#FFFFFF,#66831b,image349,5.8,image305,0.2,NA,left,left,TRUE,1044.800000011921,NA,NA
29,2,P9,D,processing,#9e1915,#FFFFFF,image197,999,image392,160,NA,left,left,TRUE,942.8000000119209,NA,NA
29,2,P9,D,processing,#159c9e,#FFFFFF,image156,6.5,image414,55,NA,right,right,TRUE,1268,NA,NA
29,2,P9,D,processing,#7b4fa1,#FFFFFF,image321,40,image302,11,NA,left,left,TRUE,1193.9000000357628,NA,NA
29,2,P10,D,processing,#FFFFFF,#d30d42,image65,450,image150,17.7,NA,left,right,FALSE,1152,NA,NA
29,2,P10,D,processing,#FFFFFF,#3f3579,image403,12,image104,6,NA,left,left,TRUE,1352.699999988079,NA,NA
29,2,P10,D,processing,#FFFFFF,#1c825b,image64,960,image26,45,NA,left,left,TRUE,1036.0999999642372,NA,NA
29,2,P10,D,processing,#5b6534,#FFFFFF,image325,12.6,image158,150,NA,right,left,FALSE,1084.0999999642372,NA,NA
29,2,P11,D,processing,#5631b9,#FFFFFF,image93,1.5,image425,700,NA,right,left,FALSE,1165.0999999642372,NA,NA
29,2,P11,D,processing,#FFFFFF,#af123c,image344,4,image3,12,NA,right,right,TRUE,1495.6000000238419,NA,NA
29,2,P11,D,processing,#17b08a,#FFFFFF,image380,30.8,image399,9,NA,left,left,TRUE,1355,NA,NA
29,2,P11,D,processing,#FFFFFF,#757d1c,image129,17,image223,170,NA,right,right,TRUE,1879.300000011921,NA,NA
29,2,P12,D,processing,#FFFFFF,#1b9883,image207,24,image92,4,NA,left,left,TRUE,1254.5,NA,NA
29,2,P12,D,processing,#FFFFFF,#81d51a,image14,1,image117,10,NA,right,left,FALSE,1191.9000000357628,NA,NA
29,2,P12,D,processing,#FFFFFF,#812e2c,image135,8.4,image9,36,NA,right,right,TRUE,1233.199999988079,NA,NA
29,2,P12,D,processing,#FFFFFF,#66309c,image110,8,image269,45,NA,right,right,TRUE,1113.6000000238419,NA,NA
29,2,P13,D,processing,#87231c,#FFFFFF,image228,250,image201,20,NA,left,right,FALSE,1284.2000000476837,NA,NA
29,2,P13,D,processing,#FFFFFF,#35827b,image389,4.8,image64,960,NA,right,right,TRUE,1186.6000000238419,NA,NA
29,2,P13,D,processing,#FFFFFF,#2d0a94,image347,999,image407,5,NA,left,left,TRUE,1600.8999999761581,NA,NA
29,2,P13,D,processing,#667d3f,#FFFFFF,image25,40,image381,12,NA,left,right,FALSE,1264.199999988079,NA,NA
29,2,P14,D,processing,#FFFFFF,#5b2877,image397,0.5,image6,20,NA,right,right,TRUE,1688.300000011921,NA,NA
29,2,P14,D,processing,#FFFFFF,#8a3d43,image65,450,image29,30,NA,left,right,FALSE,1106,NA,NA
29,2,P14,D,processing,#71ab44,#FFFFFF,image103,999,image30,19.4,NA,left,left,TRUE,1407.3999999761581,NA,NA
29,2,P14,D,processing,#2190ab,#FFFFFF,image370,58.5,image230,999,NA,right,left,FALSE,969.8000000119209,NA,NA
29,2,P15,D,processing,#327742,#FFFFFF,image269,45,image159,120,NA,right,left,FALSE,1112.3999999761581,NA,NA
29,2,P15,D,processing,#FFFFFF,#b33da5,image284,200,image313,10,NA,left,right,FALSE,1123.8999999761581,NA,NA
29,2,P15,D,processing,#976d26,#FFFFFF,image111,8,image264,18.6,NA,right,right,TRUE,1152.8999999761581,NA,NA
29,2,P15,D,processing,#2264ce,#FFFFFF,image20,4.5,image66,999,NA,right,right,TRUE,1545.5,NA,NA
29,2,P16,D,processing,#0f169f,#FFFFFF,image102,700,image413,153,NA,left,left,TRUE,1031.5,NA,NA
29,2,P16,D,processing,#25d497,#FFFFFF,image361,26.5,image15,12,NA,left,left,TRUE,1702.3999999761581,NA,NA
29,2,P16,D,processing,#b02174,#FFFFFF,image324,1.4,image38,6.5,NA,right,left,FALSE,1262.5999999642372,NA,NA
29,2,P16,D,processing,#97b234,#FFFFFF,image421,14,image86,4.5,NA,left,right,FALSE,1561.2999999523163,NA,NA
29,2,P17,D,processing,#b44a2d,#FFFFFF,image244,65,image52,800,NA,right,left,FALSE,1126.7000000476837,NA,NA
29,2,P17,D,processing,#FFFFFF,#4b7e95,image384,100,image425,700,NA,right,right,TRUE,1213.699999988079,NA,NA
29,2,P17,D,processing,#FFFFFF,#9211a6,image377,8.7,image299,300,NA,right,right,TRUE,1082.699999988079,NA,NA
29,2,P17,D,processing,#FFFFFF,#2c841f,image62,7.5,image78,999,NA,right,right,TRUE,1049.199999988079,NA,NA
29,2,P18,D,processing,#FFFFFF,#14945d,image13,15,image82,95,NA,right,left,FALSE,1062.5,NA,NA
29,2,P18,D,processing,#FFFFFF,#8e983e,image331,1.7,image111,8,NA,right,right,TRUE,1313.199999988079,NA,NA
29,2,P18,D,processing,#9e4756,#FFFFFF,image143,72,image343,16,NA,left,right,FALSE,976.5,NA,NA
29,2,P18,D,processing,#FFFFFF,#382fb6,image337,12.3,image188,5,NA,left,left,TRUE,1420.5,NA,NA
29,2,P19,D,processing,#1e3dae,#FFFFFF,image335,6.3,image303,20,NA,right,right,TRUE,1313.5,NA,NA
29,2,P19,D,processing,#FFFFFF,#46a44d,image108,40,image76,5.5,NA,left,right,FALSE,1473.5,NA,NA
29,2,P19,D,processing,#864673,#FFFFFF,image253,50,image190,150,NA,right,left,FALSE,1130.7999999523163,NA,NA
29,2,P19,D,processing,#FFFFFF,#9f832d,image209,5.5,image99,16.5,NA,right,right,TRUE,1010.5,NA,NA
29,2,P20,D,processing,#FFFFFF,#2f7f67,image390,36.8,image57,2.5,NA,left,left,TRUE,878.9000000357628,NA,NA
29,2,P20,D,processing,#664195,#FFFFFF,image194,240,image26,45,NA,left,left,TRUE,2084.599999964237,NA,NA
