participant,blockID,trialID,condition,screenID,leftColor,rightColor,leftImage,rightImage,correctObject,response,acc,rt
2,1,1,A,memory-resp,#FFFFFF,#aa7a4b,image26,image254,NA,NULL,FALSE,NA
2,1,1,A,memory-resp,#3079a6,#FFFFFF,image232,image26,NA,NULL,FALSE,NA
2,1,1,A,memory-resp,#FFFFFF,#4b9140,image26,image215,NA,NULL,FALSE,NA
2,1,1,A,memory-resp,#FFFFFF,#af0e94,image26,image331,NA,NULL,FALSE,NA
2,1,1,A,retrieval,NA,NA,NA,NA,image232,image232,TRUE,1758.6000000000931
2,1,1,A,retrieval,NA,NA,NA,NA,image331,image331,TRUE,3267.6999999997206
2,1,1,A,retrieval,NA,NA,NA,NA,image254,image254,TRUE,4428.800000000279
2,1,1,A,retrieval,NA,NA,NA,NA,image215,image215,TRUE,1373.2000000001863
2,1,2,A,memory-resp,#23802c,#FFFFFF,image320,image26,NA,left,TRUE,1062.5
2,1,2,A,memory-resp,#673b6d,#FFFFFF,image222,image26,NA,left,TRUE,1711.6000000000931
2,1,2,A,memory-resp,#FFFFFF,#256483,image26,image95,NA,right,FALSE,969.2000000001863
2,1,2,A,memory-resp,#FFFFFF,#bc4710,image26,image7,NA,right,FALSE,1152.0999999996275
2,1,2,A,retrieval,NA,NA,NA,NA,image320,image320,TRUE,2131
2,1,2,A,retrieval,NA,NA,NA,NA,image222,image222,TRUE,2550.7000000001863
2,1,2,A,retrieval,NA,NA,NA,NA,image7,image7,TRUE,2309.399999999907
2,1,2,A,retrieval,NA,NA,NA,NA,image95,image95,TRUE,2813.8000000002794
2,1,3,A,memory-resp,#FFFFFF,#42804e,image26,image257,NA,right,TRUE,1018
2,1,3,A,memory-resp,#092595,#FFFFFF,image39,image26,NA,left,FALSE,860.1000000000931
2,1,3,A,memory-resp,#FFFFFF,#b91382,image26,image71,NA,right,FALSE,985.1999999997206
2,1,3,A,memory-resp,#cd9723,#FFFFFF,image198,image26,NA,left,FALSE,916
2,1,3,A,retrieval,NA,NA,NA,NA,image71,image71,TRUE,2846.600000000093
2,1,3,A,retrieval,NA,NA,NA,NA,image39,image39,TRUE,2785.399999999907
2,1,3,A,retrieval,NA,NA,NA,NA,image198,image198,TRUE,2390
2,1,3,A,retrieval,NA,NA,NA,NA,image257,image257,TRUE,815.5
2,1,4,A,memory-resp,#52924f,#FFFFFF,image392,image26,NA,left,TRUE,1086.7000000001863
2,1,4,A,memory-resp,#b36a42,#FFFFFF,image247,image26,NA,left,TRUE,1067.8999999999069
2,1,4,A,memory-resp,#FFFFFF,#2089cf,image26,image1,NA,right,FALSE,1032
2,1,4,A,memory-resp,#70348d,#FFFFFF,image105,image26,NA,left,FALSE,926.5
2,1,4,A,retrieval,NA,NA,NA,NA,image1,image1,TRUE,6820.5
2,1,4,A,retrieval,NA,NA,NA,NA,image392,image392,TRUE,1540.6000000000931
2,1,4,A,retrieval,NA,NA,NA,NA,image247,image247,TRUE,2226.2000000001863
2,1,4,A,retrieval,NA,NA,NA,NA,image105,image105,TRUE,1401.5
2,1,5,A,memory-resp,#FFFFFF,#17aac4,image26,image313,NA,right,FALSE,1019.3999999999069
2,1,5,A,memory-resp,#FFFFFF,#bc2438,image26,image412,NA,right,FALSE,1307.2000000001863
2,1,5,A,memory-resp,#4b2a79,#FFFFFF,image241,image26,NA,left,TRUE,968.8000000002794
2,1,5,A,memory-resp,#FFFFFF,#63c035,image26,image60,NA,right,TRUE,1157.1000000000931
2,1,5,A,retrieval,NA,NA,NA,NA,image412,image412,TRUE,1965.2000000001863
2,1,5,A,retrieval,NA,NA,NA,NA,image313,image313,TRUE,1229
2,1,5,A,retrieval,NA,NA,NA,NA,image241,image241,TRUE,3132.7999999998137
2,1,5,A,retrieval,NA,NA,NA,NA,image60,image60,TRUE,666.7000000001863
2,1,6,A,memory-resp,#FFFFFF,#a8ce1c,image26,image4,NA,right,FALSE,911.5
2,1,6,A,memory-resp,#FFFFFF,#10b28c,image26,image89,NA,right,FALSE,602.1000000000931
2,1,6,A,memory-resp,#FFFFFF,#992445,image26,image251,NA,right,FALSE,775.8000000002794
2,1,6,A,memory-resp,#FFFFFF,#6654a6,image26,image347,NA,right,TRUE,753.1000000000931
2,1,6,A,retrieval,NA,NA,NA,NA,image251,image251,TRUE,1407.2000000001863
2,1,6,A,retrieval,NA,NA,NA,NA,image4,image89,FALSE,1860.7999999998137
2,1,6,A,retrieval,NA,NA,NA,NA,image89,image4,FALSE,1677.3999999999069
2,1,6,A,retrieval,NA,NA,NA,NA,image347,image347,TRUE,1077.4000000003725
2,1,7,A,memory-resp,#FFFFFF,#1a9940,image26,image207,NA,right,FALSE,848.8999999999069
2,1,7,A,memory-resp,#263eb5,#FFFFFF,image16,image26,NA,left,TRUE,888.7999999998137
2,1,7,A,memory-resp,#e79613,#FFFFFF,image216,image26,NA,left,TRUE,724.2999999998137
2,1,7,A,memory-resp,#6d2c5b,#FFFFFF,image213,image26,NA,left,FALSE,1069.6999999997206
2,1,7,A,retrieval,NA,NA,NA,NA,image207,image207,TRUE,1487.3000000002794
2,1,7,A,retrieval,NA,NA,NA,NA,image16,image16,TRUE,3489.2999999998137
2,1,7,A,retrieval,NA,NA,NA,NA,image213,image213,TRUE,4192.5
2,1,7,A,retrieval,NA,NA,NA,NA,image216,image216,TRUE,602.1000000000931
2,1,8,A,memory-resp,#961d84,#FFFFFF,image286,image26,NA,left,TRUE,842.5
2,1,8,A,memory-resp,#FFFFFF,#985c3e,image26,image40,NA,right,TRUE,727
2,1,8,A,memory-resp,#325d76,#FFFFFF,image110,image26,NA,left,FALSE,758.2000000001863
2,1,8,A,memory-resp,#3ec922,#FFFFFF,image364,image26,NA,left,FALSE,684.3999999999069
2,1,8,A,retrieval,NA,NA,NA,NA,image286,image286,TRUE,1743.1000000000931
2,1,8,A,retrieval,NA,NA,NA,NA,image40,image40,TRUE,1388.5
2,1,8,A,retrieval,NA,NA,NA,NA,image110,image110,TRUE,2645.100000000093
2,1,8,A,retrieval,NA,NA,NA,NA,image364,image364,TRUE,594.8000000002794
2,1,9,A,memory-resp,#48229b,#FFFFFF,image50,image26,NA,left,FALSE,870.7000000001863
2,1,9,A,memory-resp,#FFFFFF,#d71441,image26,image68,NA,right,TRUE,831.6000000000931
2,1,9,A,memory-resp,#FFFFFF,#a6ae32,image26,image163,NA,right,FALSE,1087.7000000001863
2,1,9,A,memory-resp,#26c993,#FFFFFF,image193,image26,NA,left,TRUE,1295
2,1,9,A,retrieval,NA,NA,NA,NA,image163,image163,TRUE,2538.7000000001863
2,1,9,A,retrieval,NA,NA,NA,NA,image68,image68,TRUE,2206.100000000093
2,1,9,A,retrieval,NA,NA,NA,NA,image50,image50,TRUE,832.6000000000931
2,1,9,A,retrieval,NA,NA,NA,NA,image193,image193,TRUE,813.5
2,1,10,A,memory-resp,#FFFFFF,#871c7e,image26,image425,NA,right,TRUE,1416.7999999998137
2,1,10,A,memory-resp,#FFFFFF,#ab942b,image26,image120,NA,right,TRUE,1064.7999999998137
2,1,10,A,memory-resp,#2a3974,#FFFFFF,image365,image26,NA,left,FALSE,967.3999999999069
2,1,10,A,memory-resp,#1c8228,#FFFFFF,image200,image26,NA,left,FALSE,914.7999999998137
2,1,10,A,retrieval,NA,NA,NA,NA,image200,image200,TRUE,3806.2000000001863
2,1,10,A,retrieval,NA,NA,NA,NA,image120,image120,TRUE,2124.2000000001863
2,1,10,A,retrieval,NA,NA,NA,NA,image425,image425,TRUE,945.8999999999069
2,1,10,A,retrieval,NA,NA,NA,NA,image365,image365,TRUE,2195.899999999907
2,1,11,A,memory-resp,#6a8033,#FFFFFF,image324,image26,NA,left,FALSE,1500.8999999999069
2,1,11,A,memory-resp,#FFFFFF,#37a974,image26,image115,NA,right,FALSE,1068
2,1,11,A,memory-resp,#FFFFFF,#2e1986,image26,image133,NA,right,TRUE,800.3000000002794
2,1,11,A,memory-resp,#c01b5d,#FFFFFF,image330,image26,NA,left,TRUE,871.8999999999069
2,1,11,A,retrieval,NA,NA,NA,NA,image115,image115,TRUE,8678.200000000186
2,1,11,A,retrieval,NA,NA,NA,NA,image324,image324,TRUE,1444.3999999999069
2,1,11,A,retrieval,NA,NA,NA,NA,image133,image133,TRUE,2339.600000000093
2,1,11,A,retrieval,NA,NA,NA,NA,image330,image330,TRUE,530.2999999998137
2,1,12,A,memory-resp,#FFFFFF,#6c4186,image26,image63,NA,right,TRUE,1875.1000000000931
2,1,12,A,memory-resp,#25acc1,#FFFFFF,image263,image26,NA,left,FALSE,1455.3000000002794
2,1,12,A,memory-resp,#4c9018,#FFFFFF,image152,image26,NA,left,TRUE,1229.3000000002794
2,1,12,A,memory-resp,#de2817,#FFFFFF,image73,image26,NA,left,FALSE,499
2,1,12,A,retrieval,NA,NA,NA,NA,image73,image73,TRUE,3012.100000000093
2,1,12,A,retrieval,NA,NA,NA,NA,image152,image152,TRUE,4468.600000000093
2,1,12,A,retrieval,NA,NA,NA,NA,image263,image263,TRUE,1317.5
2,1,12,A,retrieval,NA,NA,NA,NA,image63,image63,TRUE,742.1000000000931
2,1,13,A,memory-resp,#FFFFFF,#77c313,image26,image195,NA,right,TRUE,1001.6000000000931
2,1,13,A,memory-resp,#319ea0,#FFFFFF,image134,image26,NA,left,FALSE,739.6000000000931
2,1,13,A,memory-resp,#FFFFFF,#580cb6,image26,image186,NA,right,TRUE,1237.4000000003725
2,1,13,A,memory-resp,#a72b1b,#FFFFFF,image12,image26,NA,left,FALSE,748.2000000001863
2,1,13,A,retrieval,NA,NA,NA,NA,image12,image12,TRUE,1511.2000000001863
2,1,13,A,retrieval,NA,NA,NA,NA,image134,image186,FALSE,9463.299999999814
2,1,13,A,retrieval,NA,NA,NA,NA,image186,image195,FALSE,2054
2,1,13,A,retrieval,NA,NA,NA,NA,image195,image134,FALSE,747.5999999996275
2,1,14,A,memory-resp,#FFFFFF,#939711,image26,image378,NA,right,FALSE,2238.100000000093
2,1,14,A,memory-resp,#FFFFFF,#429a78,image26,image313,NA,right,FALSE,1194
2,1,14,A,memory-resp,#FFFFFF,#b53058,image26,image223,NA,right,TRUE,956.3000000002794
2,1,14,A,memory-resp,#23198a,#FFFFFF,image300,image26,NA,NULL,FALSE,NA
2,1,14,A,retrieval,NA,NA,NA,NA,image378,image378,TRUE,1795.6000000000931
2,1,14,A,retrieval,NA,NA,NA,NA,image223,image223,TRUE,1595.7000000001863
2,1,14,A,retrieval,NA,NA,NA,NA,image300,image300,TRUE,4873.5999999996275
2,1,14,A,retrieval,NA,NA,NA,NA,image313,image313,TRUE,612.3999999999069
2,1,15,A,memory-resp,#2d2d8b,#FFFFFF,image197,image26,NA,left,TRUE,1504.8999999999069
2,1,15,A,memory-resp,#FFFFFF,#0ecd67,image26,image88,NA,right,FALSE,1227.5
2,1,15,A,memory-resp,#FFFFFF,#9d7915,image26,image165,NA,right,FALSE,637.1000000000931
2,1,15,A,memory-resp,#FFFFFF,#b9186e,image26,image60,NA,right,TRUE,716.8999999999069
2,1,15,A,retrieval,NA,NA,NA,NA,image197,image197,TRUE,1850.6000000000931
2,1,15,A,retrieval,NA,NA,NA,NA,image88,image88,TRUE,1329.6999999997206
2,1,15,A,retrieval,NA,NA,NA,NA,image60,image60,TRUE,1170
2,1,15,A,retrieval,NA,NA,NA,NA,image165,image165,TRUE,458.1999999997206
2,2,P1,C,processing,#8eb80f,#FFFFFF,image226,image26,NA,left,TRUE,1203.8999999999069
2,2,P1,C,processing,#FFFFFF,#7d11e8,image26,image371,NA,left,TRUE,1275.6000000000931
2,2,P1,C,processing,#25d4c3,#FFFFFF,image346,image26,NA,left,TRUE,1162.0999999996275
2,2,P1,C,processing,#a41e3f,#FFFFFF,image327,image26,NA,right,TRUE,1058.1000000000931
2,2,P2,C,processing,#FFFFFF,#3f8a14,image26,image371,NA,left,TRUE,1024.8000000002794
2,2,P2,C,processing,#0b7f99,#FFFFFF,image385,image26,NA,left,TRUE,624.3999999999069
2,2,P2,C,processing,#FFFFFF,#7c3489,image26,image258,NA,left,TRUE,1092.2000000001863
2,2,P2,C,processing,#8b614b,#FFFFFF,image100,image26,NA,right,TRUE,1461.8999999999069
2,2,P3,C,processing,#3552ac,#FFFFFF,image32,image26,NA,left,TRUE,863.0999999996275
2,2,P3,C,processing,#12ce5a,#FFFFFF,image79,image26,NA,left,TRUE,777.7000000001863
2,2,P3,C,processing,#FFFFFF,#76703d,image26,image290,NA,left,TRUE,917.1999999997206
2,2,P3,C,processing,#FFFFFF,#9c3569,image26,image147,NA,left,TRUE,1116.1000000000931
2,2,P4,C,processing,#a9af3c,#FFFFFF,image226,image26,NA,left,TRUE,814
2,2,P4,C,processing,#67324f,#FFFFFF,image216,image26,NA,left,TRUE,638.3999999999069
2,2,P4,C,processing,#FFFFFF,#179256,image26,image344,NA,left,TRUE,1068.1999999997206
2,2,P4,C,processing,#1724de,#FFFFFF,image420,image26,NA,left,TRUE,658.6999999997206
2,2,P5,C,processing,#FFFFFF,#561dc9,image26,image216,NA,right,TRUE,763
2,2,P5,C,processing,#729b50,#FFFFFF,image7,image26,NA,right,TRUE,929.5
2,2,P5,C,processing,#FFFFFF,#802019,image26,image103,NA,right,TRUE,637.2999999998137
2,2,P5,C,processing,#41abaf,#FFFFFF,image62,image26,NA,right,TRUE,1043.3000000002794
2,2,P6,C,processing,#2c3496,#FFFFFF,image230,image26,NA,left,TRUE,1212.3999999999069
2,2,P6,C,processing,#FFFFFF,#7f1f4d,image26,image163,NA,left,TRUE,1601.6000000000931
2,2,P6,C,processing,#FFFFFF,#ab8d36,image26,image189,NA,right,TRUE,948.1000000000931
2,2,P6,C,processing,#FFFFFF,#3cb470,image26,image226,NA,right,TRUE,624.1999999997206
2,2,P7,C,processing,#a7112f,#FFFFFF,image169,image26,NA,left,TRUE,710.7000000001863
2,2,P7,C,processing,#FFFFFF,#55762d,image26,image193,NA,right,TRUE,750.6999999997206
2,2,P7,C,processing,#108979,#FFFFFF,image294,image26,NA,right,TRUE,883.1000000000931
2,2,P7,C,processing,#544077,#FFFFFF,image47,image26,NA,right,TRUE,874.3000000002794
2,2,P8,C,processing,#8ba352,#FFFFFF,image258,image26,NA,right,TRUE,1043.3000000002794
2,2,P8,C,processing,#bf0d37,#FFFFFF,image39,image26,NA,right,TRUE,1074.5
2,2,P8,C,processing,#FFFFFF,#482aac,image26,image188,NA,left,TRUE,1052.6000000000931
2,2,P8,C,processing,#FFFFFF,#2fb6a4,image26,image91,NA,right,TRUE,1000.6000000000931
2,2,P9,C,processing,#FFFFFF,#941e36,image26,image274,NA,left,TRUE,1363.8999999999069
2,2,P9,C,processing,#0da074,#FFFFFF,image119,image26,NA,right,TRUE,972.3999999999069
2,2,P9,C,processing,#5a6b33,#FFFFFF,image111,image26,NA,right,TRUE,965
2,2,P9,C,processing,#5e429e,#FFFFFF,image248,image26,NA,left,TRUE,1040.3000000002794
2,2,P10,C,processing,#caba12,#FFFFFF,image95,image26,NA,right,TRUE,1046.8000000002794
2,2,P10,C,processing,#7b1e5a,#FFFFFF,image77,image26,NA,left,TRUE,1009.7999999998137
2,2,P10,C,processing,#3ba55b,#FFFFFF,image140,image26,NA,right,TRUE,1000.5999999996275
2,2,P10,C,processing,#193a9f,#FFFFFF,image117,image26,NA,right,TRUE,788.7000000001863
2,2,P11,C,processing,#623e89,#FFFFFF,image92,image26,NA,right,TRUE,840
2,2,P11,C,processing,#36b6bf,#FFFFFF,image117,image26,NA,right,TRUE,660.7999999998137
2,2,P11,C,processing,#FFFFFF,#4f733a,image26,image381,NA,left,TRUE,1437.8000000002794
2,2,P11,C,processing,#b8142d,#FFFFFF,image327,image26,NA,right,TRUE,852.2999999998137
2,2,P12,C,processing,#FFFFFF,#649645,image26,image71,NA,left,TRUE,936.7999999998137
2,2,P12,C,processing,#744c9a,#FFFFFF,image172,image26,NA,right,TRUE,829.7000000001863
2,2,P12,C,processing,#924645,#FFFFFF,image160,image26,NA,right,TRUE,965
2,2,P12,C,processing,#3a7888,#FFFFFF,image182,image26,NA,left,TRUE,904.6000000000931
2,2,P13,C,processing,#FFFFFF,#2fbcb2,image26,image336,NA,left,TRUE,980.3999999999069
2,2,P13,C,processing,#FFFFFF,#4a2191,image26,image113,NA,right,TRUE,808.1000000000931
2,2,P13,C,processing,#FFFFFF,#647b32,image26,image63,NA,right,TRUE,1020.2000000001863
2,2,P13,C,processing,#FFFFFF,#a0404e,image26,image112,NA,left,TRUE,1033.8000000002794
2,2,P14,C,processing,#47598a,#FFFFFF,image16,image26,NA,left,TRUE,776.6000000000931
2,2,P14,C,processing,#8a8638,#FFFFFF,image113,image26,NA,left,TRUE,551.5999999996275
2,2,P14,C,processing,#FFFFFF,#0fd23c,image26,image363,NA,left,TRUE,1024.3000000002794
2,2,P14,C,processing,#FFFFFF,#bb3a90,image26,image411,NA,left,TRUE,733.3000000002794
2,2,P15,C,processing,#cb1090,#FFFFFF,image269,image26,NA,left,TRUE,868.1000000000931
2,2,P15,C,processing,#2c8c41,#FFFFFF,image236,image26,NA,right,TRUE,869.7000000001863
2,2,P15,C,processing,#FFFFFF,#424e8a,image26,image91,NA,right,TRUE,710.1000000000931
2,2,P15,C,processing,#FFFFFF,#b98531,image26,image305,NA,left,TRUE,1252.8000000002794
2,2,P16,C,processing,#FFFFFF,#1d8151,image26,image290,NA,left,TRUE,793.3999999999069
2,2,P16,C,processing,#8a9e2e,#FFFFFF,image168,image26,NA,right,TRUE,909.8000000002794
2,2,P16,C,processing,#302673,#FFFFFF,image81,image26,NA,right,TRUE,846.7999999998137
2,2,P16,C,processing,#FFFFFF,#b04072,image26,image178,NA,right,TRUE,682
2,2,P17,C,processing,#FFFFFF,#1a2ad5,image26,image124,NA,right,TRUE,1103.8999999999069
2,2,P17,C,processing,#FFFFFF,#207e46,image26,image344,NA,left,TRUE,963.6000000000931
2,2,P17,C,processing,#a9890a,#FFFFFF,image100,image26,NA,right,TRUE,911.5
2,2,P17,C,processing,#b8329d,#FFFFFF,image178,image26,NA,left,TRUE,705.7999999998137
2,2,P18,C,processing,#5f9915,#FFFFFF,image216,image26,NA,left,TRUE,779.1000000000931
2,2,P18,C,processing,#0bad9a,#FFFFFF,image413,image26,NA,left,TRUE,695
2,2,P18,C,processing,#831b25,#FFFFFF,image95,image26,NA,right,TRUE,817.3999999999069
2,2,P18,C,processing,#FFFFFF,#4b237b,image26,image187,NA,right,TRUE,626.9000000003725
2,2,P19,C,processing,#45bd32,#FFFFFF,image181,image26,NA,left,TRUE,779.6000000000931
2,2,P19,C,processing,#8a469b,#FFFFFF,image112,image26,NA,right,TRUE,832.3000000002794
2,2,P19,C,processing,#2c5c7d,#FFFFFF,image152,image26,NA,left,TRUE,1053.1999999997206
2,2,P19,C,processing,#976f3f,#FFFFFF,image32,image26,NA,left,TRUE,657.5
2,2,P20,C,processing,#FFFFFF,#8a9726,image26,image91,NA,right,TRUE,733.2999999998137
2,2,P20,C,processing,#FFFFFF,#32a985,image26,image239,NA,left,TRUE,1036.2999999998137
2,2,P20,C,processing,#3c20a2,#FFFFFF,image38,image26,NA,right,TRUE,806.7000000001863
2,2,P20,C,processing,#FFFFFF,#73263c,image26,image317,NA,left,TRUE,1302
2,2,P21,C,processing,#FFFFFF,#2ba725,image26,image52,NA,right,TRUE,807.9000000003725
2,2,P21,C,processing,#b116d0,#FFFFFF,image63,image26,NA,left,TRUE,721.3000000002794
2,2,P21,C,processing,#20607e,#FFFFFF,image263,image26,NA,right,TRUE,1004.1999999997206
2,2,P21,C,processing,#834516,#FFFFFF,image421,image26,NA,right,TRUE,615.6999999997206
2,2,P22,C,processing,#FFFFFF,#16d082,image26,image397,NA,left,TRUE,1217.9000000003725
2,2,P22,C,processing,#c09b16,#FFFFFF,image17,image26,NA,right,TRUE,835.1000000000931
2,2,P22,C,processing,#233076,#FFFFFF,image94,image26,NA,right,TRUE,636.6999999997206
2,2,P22,C,processing,#FFFFFF,#ab126b,image26,image410,NA,left,TRUE,1060.6000000000931
2,2,P23,C,processing,#FFFFFF,#920aa4,image26,image103,NA,right,TRUE,772.6000000000931
2,2,P23,C,processing,#FFFFFF,#25d425,image26,image266,NA,left,TRUE,887.3999999999069
2,2,P23,C,processing,#FFFFFF,#a4520e,image26,image14,NA,left,TRUE,783.1000000000931
2,2,P23,C,processing,#FFFFFF,#156b9d,image26,image199,NA,left,TRUE,666.8999999999069
2,2,P24,C,processing,#b6921b,#FFFFFF,image152,image26,NA,left,TRUE,652.8999999999069
2,2,P24,C,processing,#FFFFFF,#b941af,image26,image370,NA,left,FALSE,1589.2999999998137
2,2,P24,C,processing,#FFFFFF,#21841f,image26,image186,NA,right,TRUE,917.7000000001863
2,2,P24,C,processing,#1443db,#FFFFFF,image321,image26,NA,left,TRUE,781.8999999999069
2,2,P25,C,processing,#47679e,#FFFFFF,image363,image26,NA,right,TRUE,897.2000000001863
2,2,P25,C,processing,#775822,#FFFFFF,image40,image26,NA,left,TRUE,894.6999999997206
2,2,P25,C,processing,#a72a9f,#FFFFFF,image290,image26,NA,right,TRUE,836.5
2,2,P25,C,processing,#328b35,#FFFFFF,image138,image26,NA,right,TRUE,663.1000000000931
2,2,1,C,memory-resp,#FFFFFF,#22b45f,image26,image276,NA,right,TRUE,2439.899999999907
2,2,1,C,memory-resp,#b38323,#FFFFFF,image364,image26,NA,NULL,FALSE,NA
2,2,1,C,memory-resp,#c00c99,#FFFFFF,image120,image26,NA,left,TRUE,1476.6000000000931
2,2,1,C,memory-resp,#2a4cb2,#FFFFFF,image89,image26,NA,right,TRUE,1408.7000000001863
2,2,1,C,retrieval,NA,NA,NA,NA,image120,image120,TRUE,2032
2,2,1,C,retrieval,NA,NA,NA,NA,image364,image364,TRUE,7634.100000000093
2,2,1,C,retrieval,NA,NA,NA,NA,image89,image89,TRUE,750.7000000001863
2,2,1,C,retrieval,NA,NA,NA,NA,image276,image276,TRUE,927.6000000000931
2,2,2,C,memory-resp,#41c11a,#FFFFFF,image140,image26,NA,right,TRUE,1483.8000000002794
2,2,2,C,memory-resp,#226296,#FFFFFF,image385,image26,NA,left,TRUE,1291.8999999999069
2,2,2,C,memory-resp,#FFFFFF,#705038,image26,image347,NA,right,TRUE,1158.1000000000931
2,2,2,C,memory-resp,#81319b,#FFFFFF,image195,image26,NA,left,TRUE,843.2000000001863
2,2,2,C,retrieval,NA,NA,NA,NA,image385,image385,TRUE,4654.600000000093
2,2,2,C,retrieval,NA,NA,NA,NA,image140,image140,TRUE,1079.0999999996275
2,2,2,C,retrieval,NA,NA,NA,NA,image195,image347,FALSE,3197.9000000003725
2,2,2,C,retrieval,NA,NA,NA,NA,image347,image195,FALSE,573.3000000002794
2,2,3,C,memory-resp,#FFFFFF,#989d53,image26,image273,NA,NULL,FALSE,NA
2,2,3,C,memory-resp,#ac2a7a,#FFFFFF,image77,image26,NA,right,FALSE,1560.0999999996275
2,2,3,C,memory-resp,#FFFFFF,#30499c,image26,image320,NA,right,TRUE,1478.5999999996275
2,2,3,C,memory-resp,#FFFFFF,#407d60,image26,image117,NA,left,TRUE,1931.6000000000931
2,2,3,C,retrieval,NA,NA,NA,NA,image77,image320,FALSE,2700.4000000003725
2,2,3,C,retrieval,NA,NA,NA,NA,image273,image77,FALSE,4675.299999999814
2,2,3,C,retrieval,NA,NA,NA,NA,image117,image117,TRUE,850.2000000001863
2,2,3,C,retrieval,NA,NA,NA,NA,image320,image273,FALSE,698.6000000000931
2,2,4,C,memory-resp,#8d321c,#FFFFFF,image284,image26,NA,left,TRUE,2144.3000000002794
2,2,4,C,memory-resp,#428ca9,#FFFFFF,image66,image26,NA,left,TRUE,1021.8999999999069
2,2,4,C,memory-resp,#FFFFFF,#81388f,image26,image411,NA,left,TRUE,898.8000000002794
2,2,4,C,memory-resp,#478627,#FFFFFF,image421,image26,NA,right,TRUE,1023.5
2,2,4,C,retrieval,NA,NA,NA,NA,image411,image411,TRUE,1671.3999999999069
2,2,4,C,retrieval,NA,NA,NA,NA,image66,image66,TRUE,2349.100000000093
2,2,4,C,retrieval,NA,NA,NA,NA,image421,image421,TRUE,3195
2,2,4,C,retrieval,NA,NA,NA,NA,image284,image284,TRUE,497.8000000002794
2,2,5,C,memory-resp,#FFFFFF,#9b7946,image26,image107,NA,right,TRUE,1416.1000000000931
2,2,5,C,memory-resp,#248426,#FFFFFF,image130,image26,NA,left,TRUE,921.1000000000931
2,2,5,C,memory-resp,#ac14d7,#FFFFFF,image254,image26,NA,left,TRUE,1391.3999999999069
2,2,5,C,memory-resp,#106c93,#FFFFFF,image17,image26,NA,right,TRUE,976.8999999999069
2,2,5,C,retrieval,NA,NA,NA,NA,image17,image17,TRUE,1831.8000000002794
2,2,5,C,retrieval,NA,NA,NA,NA,image254,image254,TRUE,2345.3000000002794
2,2,5,C,retrieval,NA,NA,NA,NA,image107,image107,TRUE,1338.8000000002794
2,2,5,C,retrieval,NA,NA,NA,NA,image130,image130,TRUE,671.3000000002794
2,2,6,C,memory-resp,#FFFFFF,#0ccfc5,image26,image230,NA,right,TRUE,2251.8000000002794
2,2,6,C,memory-resp,#FFFFFF,#4b7b24,image26,image269,NA,right,TRUE,1496.9000000003725
2,2,6,C,memory-resp,#FFFFFF,#874043,image26,image369,NA,right,TRUE,933.1000000000931
2,2,6,C,memory-resp,#5b2a93,#FFFFFF,image299,image26,NA,left,TRUE,889.1000000000931
2,2,6,C,retrieval,NA,NA,NA,NA,image269,image269,TRUE,2160.7999999998137
2,2,6,C,retrieval,NA,NA,NA,NA,image369,image369,TRUE,6165.600000000093
2,2,6,C,retrieval,NA,NA,NA,NA,image299,image299,TRUE,3780.5
2,2,6,C,retrieval,NA,NA,NA,NA,image230,image230,TRUE,1065.1000000000931
2,2,7,C,memory-resp,#8c634a,#FFFFFF,image188,image26,NA,right,TRUE,1487.6000000000931
2,2,7,C,memory-resp,#FFFFFF,#0f93cc,image26,image39,NA,left,TRUE,1185.3999999999069
2,2,7,C,memory-resp,#d31dc7,#FFFFFF,image68,image26,NA,left,TRUE,771.3000000002794
2,2,7,C,memory-resp,#36723d,#FFFFFF,image280,image26,NA,left,TRUE,944.6999999997206
2,2,7,C,retrieval,NA,NA,NA,NA,image39,image39,TRUE,2552.2000000001863
2,2,7,C,retrieval,NA,NA,NA,NA,image68,image68,TRUE,2377.7999999998137
2,2,7,C,retrieval,NA,NA,NA,NA,image280,image280,TRUE,2262.100000000093
2,2,7,C,retrieval,NA,NA,NA,NA,image188,image188,TRUE,977.5
2,2,8,C,memory-resp,#FFFFFF,#882999,image26,image125,NA,left,TRUE,1259.7999999998137
2,2,8,C,memory-resp,#FFFFFF,#36c62f,image26,image330,NA,right,TRUE,983.3999999999069
2,2,8,C,memory-resp,#FFFFFF,#3279b3,image26,image173,NA,right,TRUE,864.3999999999069
2,2,8,C,memory-resp,#9f6f3c,#FFFFFF,image57,image26,NA,right,TRUE,1261.8999999999069
2,2,8,C,retrieval,NA,NA,NA,NA,image125,image125,TRUE,2685.100000000093
2,2,8,C,retrieval,NA,NA,NA,NA,image330,image330,TRUE,1473.6999999997206
2,2,8,C,retrieval,NA,NA,NA,NA,image57,image173,FALSE,3032.899999999907
2,2,8,C,retrieval,NA,NA,NA,NA,image173,image57,FALSE,785.6000000000931
2,2,9,C,memory-resp,#FFFFFF,#93c115,image26,image133,NA,right,TRUE,1449.5
2,2,9,C,memory-resp,#b1355a,#FFFFFF,image340,image26,NA,right,TRUE,1368
2,2,9,C,memory-resp,#198f76,#FFFFFF,image52,image26,NA,left,TRUE,1072.6000000000931
2,2,9,C,memory-resp,#3e24b2,#FFFFFF,image195,image26,NA,left,TRUE,805.2999999998137
2,2,9,C,retrieval,NA,NA,NA,NA,image340,image340,TRUE,1927.5
2,2,9,C,retrieval,NA,NA,NA,NA,image133,image133,TRUE,1433.7999999998137
2,2,9,C,retrieval,NA,NA,NA,NA,image52,image195,FALSE,3987
2,2,9,C,retrieval,NA,NA,NA,NA,image195,image195,TRUE,1028.8999999999069
2,2,10,C,memory-resp,#bf2251,#FFFFFF,image198,image26,NA,right,TRUE,1587.8999999999069
2,2,10,C,memory-resp,#FFFFFF,#1d8c5c,image26,image73,NA,left,TRUE,1246.3999999999069
2,2,10,C,memory-resp,#31199a,#FFFFFF,image7,image26,NA,right,TRUE,1153.1999999997206
2,2,10,C,memory-resp,#99ab21,#FFFFFF,image269,image26,NA,left,TRUE,1039.4000000003725
2,2,10,C,retrieval,NA,NA,NA,NA,image7,image7,TRUE,4441.799999999814
2,2,10,C,retrieval,NA,NA,NA,NA,image198,image198,TRUE,1861.7000000001863
2,2,10,C,retrieval,NA,NA,NA,NA,image73,image73,TRUE,953.3999999999069
2,2,10,C,retrieval,NA,NA,NA,NA,image269,image269,TRUE,934.8000000002794
2,2,11,C,memory-resp,#FFFFFF,#c226c5,image26,image28,NA,left,TRUE,1455.7999999998137
2,2,11,C,memory-resp,#c84d19,#FFFFFF,image68,image26,NA,left,TRUE,1186.7999999998137
2,2,11,C,memory-resp,#1c829b,#FFFFFF,image263,image26,NA,right,TRUE,1044.5
2,2,11,C,memory-resp,#446837,#FFFFFF,image299,image26,NA,left,TRUE,932.6000000000931
2,2,11,C,retrieval,NA,NA,NA,NA,image263,image263,TRUE,6733.100000000093
2,2,11,C,retrieval,NA,NA,NA,NA,image28,image299,FALSE,3013.899999999907
2,2,11,C,retrieval,NA,NA,NA,NA,image299,image299,TRUE,3944
2,2,11,C,retrieval,NA,NA,NA,NA,image68,image68,TRUE,1034.3999999999069
2,2,12,C,memory-resp,#798b23,#FFFFFF,image327,image26,NA,right,TRUE,1675.6999999997206
2,2,12,C,memory-resp,#28814a,#FFFFFF,image91,image26,NA,left,TRUE,1277.6999999997206
2,2,12,C,memory-resp,#c80e52,#FFFFFF,image112,image26,NA,right,TRUE,984.2999999998137
2,2,12,C,memory-resp,#FFFFFF,#573bb5,image26,image89,NA,left,TRUE,1115.1000000000931
2,2,12,C,retrieval,NA,NA,NA,NA,image327,image327,TRUE,2378
2,2,12,C,retrieval,NA,NA,NA,NA,image91,image91,TRUE,1262
2,2,12,C,retrieval,NA,NA,NA,NA,image89,image112,FALSE,1833.7999999998137
2,2,12,C,retrieval,NA,NA,NA,NA,image112,image89,FALSE,4322.199999999721
2,2,13,C,memory-resp,#FFFFFF,#287c8a,image26,image339,NA,left,TRUE,1918.2999999998137
2,2,13,C,memory-resp,#FFFFFF,#630f9f,image26,image248,NA,right,TRUE,1788.7000000001863
2,2,13,C,memory-resp,#FFFFFF,#935048,image26,image215,NA,right,TRUE,1054.3999999999069
2,2,13,C,memory-resp,#FFFFFF,#67980b,image26,image346,NA,right,TRUE,901.6000000000931
2,2,13,C,retrieval,NA,NA,NA,NA,image248,image248,TRUE,2461.5
2,2,13,C,retrieval,NA,NA,NA,NA,image215,image215,TRUE,4336
2,2,13,C,retrieval,NA,NA,NA,NA,image346,image133,FALSE,888.2999999998137
2,2,13,C,retrieval,NA,NA,NA,NA,image339,image346,FALSE,643.7999999998137
2,2,14,C,memory-resp,#FFFFFF,#6c8d11,image26,image385,NA,right,TRUE,1771
2,2,14,C,memory-resp,#FFFFFF,#2e996e,image26,image420,NA,right,TRUE,976
2,2,14,C,memory-resp,#FFFFFF,#be2d5b,image26,image222,NA,right,TRUE,756.6999999997206
2,2,14,C,memory-resp,#492bbf,#FFFFFF,image91,image26,NA,left,TRUE,743.0999999996275
2,2,14,C,retrieval,NA,NA,NA,NA,image91,image91,TRUE,1832
2,2,14,C,retrieval,NA,NA,NA,NA,image385,image385,TRUE,1336.8999999999069
2,2,14,C,retrieval,NA,NA,NA,NA,image222,image222,TRUE,1810.3000000002794
2,2,14,C,retrieval,NA,NA,NA,NA,image420,image420,TRUE,474.40000000037253
2,2,15,C,memory-resp,#386c32,#FFFFFF,image4,image26,NA,right,TRUE,1002.8000000002794
2,2,15,C,memory-resp,#214e78,#FFFFFF,image305,image26,NA,right,TRUE,1514.5
2,2,15,C,memory-resp,#FFFFFF,#8d2e8e,image26,image262,NA,left,TRUE,1048.1000000000931
2,2,15,C,memory-resp,#a05f27,#FFFFFF,image292,image26,NA,right,TRUE,935.5999999996275
2,2,15,C,retrieval,NA,NA,NA,NA,image292,image292,TRUE,896.5
2,2,15,C,retrieval,NA,NA,NA,NA,image4,image4,TRUE,2319.8000000002794
2,2,15,C,retrieval,NA,NA,NA,NA,image305,image305,TRUE,740.5
2,2,15,C,retrieval,NA,NA,NA,NA,image262,image262,TRUE,527.2000000001863
2,3,P1,B,processing,#82743a,#FFFFFF,image347,image26,NA,right,FALSE,533.3999999999069
2,3,P1,B,processing,#FFFFFF,#366343,image26,image236,NA,left,TRUE,525.8999999999069
2,3,P1,B,processing,#ce2783,#FFFFFF,image222,image26,NA,right,FALSE,527.5
2,3,P1,B,processing,#FFFFFF,#251e9f,image26,image115,NA,left,TRUE,557.6000000000931
2,3,P2,B,processing,#FFFFFF,#7b2861,image26,image168,NA,left,TRUE,553.1000000000931
2,3,P2,B,processing,#FFFFFF,#435898,image26,image223,NA,left,FALSE,408.3000000002794
2,3,P2,B,processing,#816c36,#FFFFFF,image279,image26,NA,right,FALSE,604.5
2,3,P2,B,processing,#FFFFFF,#0d9137,image26,image286,NA,left,FALSE,405.40000000037253
2,3,P3,B,processing,#884452,#FFFFFF,image324,image26,NA,right,TRUE,506.10000000009313
2,3,P3,B,processing,#FFFFFF,#449785,image26,image423,NA,left,TRUE,493.5
2,3,P3,B,processing,#FFFFFF,#739a19,image26,image16,NA,left,FALSE,437.5
2,3,P3,B,processing,#FFFFFF,#5112d9,image26,image363,NA,left,TRUE,551.1999999997206
2,3,P4,B,processing,#9c9c21,#FFFFFF,image52,image26,NA,right,FALSE,588.9000000003725
2,3,P4,B,processing,#962269,#FFFFFF,image107,image26,NA,right,FALSE,534.3999999999069
2,3,P4,B,processing,#1d29cd,#FFFFFF,image120,image26,NA,right,FALSE,461.39999999990687
2,3,P4,B,processing,#489960,#FFFFFF,image197,image26,NA,right,FALSE,376.10000000009313
2,3,P5,B,processing,#FFFFFF,#3f3c86,image26,image50,NA,left,TRUE,516.9000000003725
2,3,P5,B,processing,#FFFFFF,#7b374e,image26,image130,NA,left,FALSE,391.40000000037253
2,3,P5,B,processing,#6c7b28,#FFFFFF,image423,image26,NA,right,TRUE,621
2,3,P5,B,processing,#FFFFFF,#56a48b,image26,image119,NA,left,TRUE,550.7000000001863
2,3,P6,B,processing,#FFFFFF,#519a90,image26,image279,NA,left,FALSE,555.1000000000931
2,3,P6,B,processing,#3b248f,#FFFFFF,image93,image26,NA,right,TRUE,485.5
2,3,P6,B,processing,#FFFFFF,#6f8033,image26,image112,NA,left,TRUE,436.89999999990687
2,3,P6,B,processing,#b10b32,#FFFFFF,image258,image26,NA,right,TRUE,622.6999999997206
2,3,P7,B,processing,#8c7045,#FFFFFF,image230,image26,NA,right,FALSE,2054.3000000002794
2,3,P7,B,processing,#FFFFFF,#6b3474,image26,image395,NA,left,TRUE,576.4000000003725
2,3,P7,B,processing,#367abf,#FFFFFF,image276,image26,NA,right,FALSE,534.3000000002794
2,3,P7,B,processing,#FFFFFF,#37732b,image26,image10,NA,left,TRUE,885.7000000001863
2,3,P8,B,processing,#FFFFFF,#9f6f41,image26,image424,NA,left,FALSE,532.8999999999069
2,3,P8,B,processing,#781b8d,#FFFFFF,image385,image26,NA,right,FALSE,432.10000000009313
2,3,P8,B,processing,#FFFFFF,#5ca338,image26,image324,NA,left,TRUE,445.5
2,3,P8,B,processing,#0f7ba9,#FFFFFF,image276,image26,NA,right,FALSE,423.70000000018626
2,3,P9,B,processing,#7f2e29,#FFFFFF,image408,image26,NA,right,TRUE,556.2999999998137
2,3,P9,B,processing,#1b7d88,#FFFFFF,image220,image26,NA,right,TRUE,406.8000000002794
2,3,P9,B,processing,#63a21a,#FFFFFF,image216,image26,NA,right,FALSE,333.79999999981374
2,3,P9,B,processing,#FFFFFF,#50307e,image26,image350,NA,left,TRUE,557.6000000000931
2,3,P10,B,processing,#3c805b,#FFFFFF,image226,image26,NA,right,FALSE,483.70000000018626
2,3,P10,B,processing,#FFFFFF,#0d10ba,image26,image230,NA,left,FALSE,597.8000000002794
2,3,P10,B,processing,#FFFFFF,#83751b,image26,image296,NA,left,TRUE,598
2,3,P10,B,processing,#FFFFFF,#e21285,image26,image165,NA,left,TRUE,950.8999999999069
2,3,P11,B,processing,#cc1e61,#FFFFFF,image235,image26,NA,right,TRUE,597.2999999998137
2,3,P11,B,processing,#FFFFFF,#a38f0a,image26,image7,NA,left,TRUE,527
2,3,P11,B,processing,#374267,#FFFFFF,image181,image26,NA,right,FALSE,503.60000000009313
2,3,P11,B,processing,#4aa56c,#FFFFFF,image91,image26,NA,right,FALSE,598.2000000001863
2,3,P12,B,processing,#8f1e4a,#FFFFFF,image293,image26,NA,right,FALSE,524.5
2,3,P12,B,processing,#FFFFFF,#1a28c1,image26,image62,NA,left,TRUE,493.79999999981374
2,3,P12,B,processing,#1adb9e,#FFFFFF,image241,image26,NA,right,FALSE,468.89999999990687
2,3,P12,B,processing,#8f910d,#FFFFFF,image63,image26,NA,right,FALSE,614.1000000000931
2,3,P13,B,processing,#FFFFFF,#a02780,image26,image363,NA,left,TRUE,500
2,3,P13,B,processing,#9e8f51,#FFFFFF,image78,image26,NA,right,FALSE,454.5
2,3,P13,B,processing,#20388d,#FFFFFF,image176,image26,NA,right,FALSE,621.6999999997206
2,3,P13,B,processing,#298946,#FFFFFF,image385,image26,NA,right,FALSE,567.5
2,3,P14,B,processing,#FFFFFF,#a71655,image26,image63,NA,left,FALSE,507.20000000018626
2,3,P14,B,processing,#aca916,#FFFFFF,image257,image26,NA,right,FALSE,484.5
2,3,P14,B,processing,#FFFFFF,#1d2ba5,image26,image103,NA,left,FALSE,416.3000000002794
2,3,P14,B,processing,#22965c,#FFFFFF,image35,image26,NA,right,FALSE,892.6999999997206
2,3,P15,B,processing,#FFFFFF,#53ab1c,image26,image356,NA,left,TRUE,547.5
2,3,P15,B,processing,#FFFFFF,#c411e4,image26,image120,NA,left,FALSE,583.1000000000931
2,3,P15,B,processing,#a3422e,#FFFFFF,image424,image26,NA,right,FALSE,521.2000000001863
2,3,P15,B,processing,#FFFFFF,#20afb6,image26,image107,NA,left,FALSE,1021
2,3,P16,B,processing,#FFFFFF,#ac3ab6,image26,image197,NA,left,FALSE,501.39999999990687
2,3,P16,B,processing,#FFFFFF,#8a502e,image26,image395,NA,left,TRUE,567.7999999998137
2,3,P16,B,processing,#FFFFFF,#199c16,image26,image93,NA,left,TRUE,628.6000000000931
2,3,P16,B,processing,#FFFFFF,#0e7dbe,image26,image198,NA,left,TRUE,357.10000000009313
2,3,P17,B,processing,#FFFFFF,#53a29e,image26,image31,NA,left,FALSE,556.7000000001863
2,3,P17,B,processing,#FFFFFF,#831fdb,image26,image195,NA,left,FALSE,390.20000000018626
2,3,P17,B,processing,#883f4b,#FFFFFF,image385,image26,NA,right,FALSE,1101.8999999999069
2,3,P17,B,processing,#60c10b,#FFFFFF,image399,image26,NA,right,TRUE,333.39999999990687
2,3,P18,B,processing,#203388,#FFFFFF,image266,image26,NA,right,TRUE,626.6999999997206
2,3,P18,B,processing,#FFFFFF,#ad762e,image26,image35,NA,left,FALSE,985.2999999998137
2,3,P18,B,processing,#FFFFFF,#0dce34,image26,image424,NA,left,FALSE,605.7999999998137
2,3,P18,B,processing,#FFFFFF,#af3c87,image26,image119,NA,left,TRUE,413
2,3,P19,B,processing,#FFFFFF,#408415,image26,image254,NA,left,FALSE,557.2000000001863
2,3,P19,B,processing,#FFFFFF,#1ca3d9,image26,image279,NA,left,FALSE,399.29999999981374
2,3,P19,B,processing,#9f2ca5,#FFFFFF,image168,image26,NA,left,FALSE,262
2,3,P19,B,processing,#FFFFFF,#86321d,image26,image147,NA,left,TRUE,429.1999999997206
2,3,P20,B,processing,#2f7379,#FFFFFF,image34,image26,NA,right,FALSE,1044.2000000001863
2,3,P20,B,processing,#FFFFFF,#86131d,image26,image10,NA,left,TRUE,468.79999999981374
2,3,P20,B,processing,#FFFFFF,#6f48a3,image26,image257,NA,left,FALSE,631.2999999998137
2,3,P20,B,processing,#FFFFFF,#5fb31e,image26,image12,NA,left,TRUE,340.70000000018626
2,3,P21,B,processing,#49a117,#FFFFFF,image279,image26,NA,right,FALSE,665.1000000000931
2,3,P21,B,processing,#FFFFFF,#14c6cc,image26,image163,NA,left,TRUE,551.2000000001863
2,3,P21,B,processing,#FFFFFF,#5b2287,image26,image363,NA,left,TRUE,525.7999999998137
2,3,P21,B,processing,#FFFFFF,#92554f,image26,image239,NA,left,TRUE,519.8000000002794
2,3,P22,B,processing,#FFFFFF,#366d72,image26,image12,NA,left,TRUE,573.7000000001863
2,3,P22,B,processing,#992da9,#FFFFFF,image405,image26,NA,right,TRUE,581.3999999999069
2,3,P22,B,processing,#48ae24,#FFFFFF,image425,image26,NA,right,FALSE,589.8000000002794
2,3,P22,B,processing,#6e3c35,#FFFFFF,image113,image26,NA,right,FALSE,543.4000000003725
2,3,P23,B,processing,#63357e,#FFFFFF,image176,image26,NA,right,FALSE,565.1000000000931
2,3,P23,B,processing,#FFFFFF,#149f98,image26,image280,NA,left,FALSE,599.7999999998137
2,3,P23,B,processing,#FFFFFF,#673e37,image26,image38,NA,left,TRUE,534.3999999999069
2,3,P23,B,processing,#5c7b2d,#FFFFFF,image107,image26,NA,right,FALSE,607.4000000003725
2,3,P24,B,processing,#7d1c32,#FFFFFF,image88,image26,NA,right,TRUE,547.8999999999069
2,3,P24,B,processing,#FFFFFF,#18a59c,image26,image301,NA,left,FALSE,527.1000000000931
2,3,P24,B,processing,#9ee01a,#FFFFFF,image52,image26,NA,right,FALSE,572.8999999999069
2,3,P24,B,processing,#FFFFFF,#4e17c4,image26,image181,NA,left,FALSE,465.8000000002794
2,3,P25,B,processing,#27a536,#FFFFFF,image301,image26,NA,right,FALSE,498.10000000009313
2,3,P25,B,processing,#FFFFFF,#7d623b,image26,image147,NA,left,TRUE,361
2,3,P25,B,processing,#FFFFFF,#3d618f,image26,image91,NA,left,FALSE,367.1999999997206
2,3,P25,B,processing,#FFFFFF,#8f0ea0,image26,image128,NA,left,TRUE,415.3000000002794
2,3,1,B,memory-resp,#ce1c22,#FFFFFF,image142,image26,NA,right,TRUE,1493.1999999997206
2,3,1,B,memory-resp,#FFFFFF,#95cc1e,image26,image286,NA,left,TRUE,1534.5
2,3,1,B,memory-resp,#6e30c5,#FFFFFF,image293,image26,NA,right,TRUE,1345.7999999998137
2,3,1,B,memory-resp,#2e706c,#FFFFFF,image60,image26,NA,right,TRUE,1260.1999999997206
2,3,1,B,retrieval,NA,NA,NA,NA,image142,image142,TRUE,1690.7000000001863
2,3,1,B,retrieval,NA,NA,NA,NA,image286,image286,TRUE,933.0999999996275
2,3,1,B,retrieval,NA,NA,NA,NA,image60,image293,FALSE,4982
2,3,1,B,retrieval,NA,NA,NA,NA,image293,image60,FALSE,564.2000000001863
2,3,2,B,memory-resp,#81a54a,#FFFFFF,image53,image26,NA,right,TRUE,1173.3999999999069
2,3,2,B,memory-resp,#27968b,#FFFFFF,image419,image26,NA,right,TRUE,1402.7000000001863
2,3,2,B,memory-resp,#FFFFFF,#5a2a98,image26,image130,NA,left,TRUE,1203.3999999999069
2,3,2,B,memory-resp,#9e4759,#FFFFFF,image34,image26,NA,right,TRUE,1324.6000000000931
2,3,2,B,retrieval,NA,NA,NA,NA,image34,image34,TRUE,1140.8999999999069
2,3,2,B,retrieval,NA,NA,NA,NA,image130,image130,TRUE,5617.899999999907
2,3,2,B,retrieval,NA,NA,NA,NA,image53,image53,TRUE,1730.3999999999069
2,3,2,B,retrieval,NA,NA,NA,NA,image419,image420,FALSE,1829.6999999997206
2,3,3,B,memory-resp,#FFFFFF,#440f8a,image26,image420,NA,left,TRUE,1884.8999999999069
2,3,3,B,memory-resp,#0e98a4,#FFFFFF,image338,image26,NA,right,TRUE,1211.2000000001863
2,3,3,B,memory-resp,#7e3525,#FFFFFF,image34,image26,NA,right,TRUE,986.4000000003725
2,3,3,B,memory-resp,#48b20a,#FFFFFF,image293,image26,NA,right,TRUE,945.7999999998137
2,3,3,B,retrieval,NA,NA,NA,NA,image293,image293,TRUE,3735
2,3,3,B,retrieval,NA,NA,NA,NA,image420,image420,TRUE,3473.9000000003725
2,3,3,B,retrieval,NA,NA,NA,NA,image338,image338,TRUE,850.2000000001863
2,3,3,B,retrieval,NA,NA,NA,NA,image34,image34,TRUE,1917.8999999999069
2,3,4,B,memory-resp,#FFFFFF,#b2320a,image26,image70,NA,left,TRUE,1309.3999999999069
2,3,4,B,memory-resp,#FFFFFF,#136ca0,image26,image363,NA,left,TRUE,1254.3000000002794
2,3,4,B,memory-resp,#FFFFFF,#57b643,image26,image222,NA,left,TRUE,627.8999999999069
2,3,4,B,memory-resp,#FFFFFF,#b80dce,image26,image393,NA,left,TRUE,514.3999999999069
2,3,4,B,retrieval,NA,NA,NA,NA,image393,image393,TRUE,1095.3999999999069
2,3,4,B,retrieval,NA,NA,NA,NA,image222,image222,TRUE,2990.600000000093
2,3,4,B,retrieval,NA,NA,NA,NA,image70,image70,TRUE,857.7000000001863
2,3,4,B,retrieval,NA,NA,NA,NA,image363,image363,TRUE,656.7000000001863
2,3,5,B,memory-resp,#FFFFFF,#3aa193,image26,image276,NA,left,TRUE,2205
2,3,5,B,memory-resp,#FFFFFF,#c51b43,image26,image91,NA,left,TRUE,788.7000000001863
2,3,5,B,memory-resp,#FFFFFF,#7d519e,image26,image350,NA,left,TRUE,1160.7000000001863
2,3,5,B,memory-resp,#6f8b41,#FFFFFF,image420,image26,NA,right,TRUE,762.6000000000931
2,3,5,B,retrieval,NA,NA,NA,NA,image420,image420,TRUE,1076.8999999999069
2,3,5,B,retrieval,NA,NA,NA,NA,image350,image350,TRUE,2389.899999999907
2,3,5,B,retrieval,NA,NA,NA,NA,image276,image276,TRUE,1560.5
2,3,5,B,retrieval,NA,NA,NA,NA,image91,image91,TRUE,506.29999999981374
2,3,6,B,memory-resp,#FFFFFF,#2a52b2,image26,image187,NA,left,TRUE,1820.3999999999069
2,3,6,B,memory-resp,#FFFFFF,#9a8151,image26,image228,NA,left,TRUE,1707.3999999999069
2,3,6,B,memory-resp,#4e8547,#FFFFFF,image103,image26,NA,right,TRUE,824.6999999997206
2,3,6,B,memory-resp,#FFFFFF,#7b1e6c,image26,image230,NA,left,TRUE,1179.3999999999069
2,3,6,B,retrieval,NA,NA,NA,NA,image187,image187,TRUE,1697.2000000001863
2,3,6,B,retrieval,NA,NA,NA,NA,image103,image103,TRUE,3675.2000000001863
2,3,6,B,retrieval,NA,NA,NA,NA,image228,image228,TRUE,1538.2000000001863
2,3,6,B,retrieval,NA,NA,NA,NA,image230,image230,TRUE,606
2,3,7,B,memory-resp,#FFFFFF,#861d26,image26,image10,NA,left,TRUE,1247.6999999997206
2,3,7,B,memory-resp,#FFFFFF,#3fa1a6,image26,image286,NA,left,TRUE,1313.5
2,3,7,B,memory-resp,#FFFFFF,#6a479e,image26,image405,NA,left,TRUE,707.1000000000931
2,3,7,B,memory-resp,#71b045,#FFFFFF,image369,image26,NA,right,TRUE,1068.2999999998137
2,3,7,B,retrieval,NA,NA,NA,NA,image369,image369,TRUE,1050.8999999999069
2,3,7,B,retrieval,NA,NA,NA,NA,image405,image405,TRUE,2519.600000000093
2,3,7,B,retrieval,NA,NA,NA,NA,image10,image10,TRUE,709.8999999999069
2,3,7,B,retrieval,NA,NA,NA,NA,image286,image286,TRUE,641.5
2,3,8,B,memory-resp,#6f1d90,#FFFFFF,image279,image26,NA,right,TRUE,1651.2000000001863
2,3,8,B,memory-resp,#43a63f,#FFFFFF,image216,image26,NA,right,TRUE,1363.3999999999069
2,3,8,B,memory-resp,#19679f,#FFFFFF,image135,image26,NA,right,TRUE,1027.7000000001863
2,3,8,B,memory-resp,#FFFFFF,#ae4d19,image26,image103,NA,right,FALSE,420.1999999997206
2,3,8,B,retrieval,NA,NA,NA,NA,image279,image279,TRUE,1609.6999999997206
2,3,8,B,retrieval,NA,NA,NA,NA,image103,image135,FALSE,5747.5
2,3,8,B,retrieval,NA,NA,NA,NA,image216,image216,TRUE,1098.3999999999069
2,3,8,B,retrieval,NA,NA,NA,NA,image135,image103,FALSE,1150.0999999996275
2,3,9,B,memory-resp,#FFFFFF,#3829bc,image26,image327,NA,left,TRUE,1146.8999999999069
2,3,9,B,memory-resp,#be3c88,#FFFFFF,image340,image26,NA,right,TRUE,1075.1000000000931
2,3,9,B,memory-resp,#aba33b,#FFFFFF,image279,image26,NA,right,TRUE,627.8999999999069
2,3,9,B,memory-resp,#FFFFFF,#346a4f,image26,image381,NA,left,TRUE,1068.6999999997206
2,3,9,B,retrieval,NA,NA,NA,NA,image381,image381,TRUE,1347.1999999997206
2,3,9,B,retrieval,NA,NA,NA,NA,image327,image327,TRUE,910.5999999996275
2,3,9,B,retrieval,NA,NA,NA,NA,image340,image340,TRUE,2162.399999999907
2,3,9,B,retrieval,NA,NA,NA,NA,image279,image279,TRUE,2581.1999999997206
2,3,10,B,memory-resp,#FFFFFF,#317d38,image26,image187,NA,left,TRUE,1357.2999999998137
2,3,10,B,memory-resp,#FFFFFF,#304f97,image26,image385,NA,left,TRUE,2484.0999999996275
2,3,10,B,memory-resp,#9f4185,#FFFFFF,image371,image26,NA,right,TRUE,868.0999999996275
2,3,10,B,memory-resp,#807523,#FFFFFF,image205,image26,NA,right,TRUE,762.1000000000931
2,3,10,B,retrieval,NA,NA,NA,NA,image187,image187,TRUE,2312.2999999998137
2,3,10,B,retrieval,NA,NA,NA,NA,image385,image385,TRUE,1753.3000000002794
2,3,10,B,retrieval,NA,NA,NA,NA,image205,image205,TRUE,2999.899999999907
2,3,10,B,retrieval,NA,NA,NA,NA,image371,image371,TRUE,552.5999999996275
2,3,11,B,memory-resp,#FFFFFF,#755938,image26,image117,NA,left,TRUE,1317.2999999998137
2,3,11,B,memory-resp,#c60ca7,#FFFFFF,image76,image26,NA,right,TRUE,1190
2,3,11,B,memory-resp,#2f75c1,#FFFFFF,image280,image26,NA,right,TRUE,1190.0999999996275
2,3,11,B,memory-resp,#3a9c47,#FFFFFF,image233,image26,NA,right,TRUE,704.2000000001863
2,3,11,B,retrieval,NA,NA,NA,NA,image280,image280,TRUE,8056.600000000093
2,3,11,B,retrieval,NA,NA,NA,NA,image117,image117,TRUE,1393.5999999996275
2,3,11,B,retrieval,NA,NA,NA,NA,image233,image233,TRUE,1106.3999999999069
2,3,11,B,retrieval,NA,NA,NA,NA,image76,image76,TRUE,542.7999999998137
2,3,12,B,memory-resp,#FFFFFF,#bb5f35,image26,image241,NA,NULL,FALSE,NA
2,3,12,B,memory-resp,#FFFFFF,#426f34,image26,image296,NA,left,TRUE,862.5999999996275
2,3,12,B,memory-resp,#FFFFFF,#662b7d,image26,image324,NA,left,TRUE,453.1999999997206
2,3,12,B,memory-resp,#FFFFFF,#1088ad,image26,image276,NA,left,TRUE,598.1999999997206
2,3,12,B,retrieval,NA,NA,NA,NA,image276,image276,TRUE,3285.399999999907
2,3,12,B,retrieval,NA,NA,NA,NA,image296,image296,TRUE,1048.5
2,3,12,B,retrieval,NA,NA,NA,NA,image241,image241,TRUE,1358.7999999998137
2,3,12,B,retrieval,NA,NA,NA,NA,image324,image324,TRUE,2808.600000000093
2,3,13,B,memory-resp,#7b232d,#FFFFFF,image40,image26,NA,right,TRUE,1291.3999999999069
2,3,13,B,memory-resp,#FFFFFF,#6a36bf,image26,image425,NA,left,TRUE,2268.5
2,3,13,B,memory-resp,#FFFFFF,#0ea074,image26,image44,NA,left,TRUE,1267.8000000002794
2,3,13,B,memory-resp,#758d35,#FFFFFF,image58,image26,NA,right,TRUE,1004
2,3,13,B,retrieval,NA,NA,NA,NA,image44,image44,TRUE,3180.9000000003725
2,3,13,B,retrieval,NA,NA,NA,NA,image58,image58,TRUE,3832
2,3,13,B,retrieval,NA,NA,NA,NA,image40,image40,TRUE,942.1000000000931
2,3,13,B,retrieval,NA,NA,NA,NA,image425,image425,TRUE,569.6999999997206
2,3,14,B,memory-resp,#9d5f39,#FFFFFF,image94,image26,NA,right,TRUE,1782.3999999999069
2,3,14,B,memory-resp,#50849f,#FFFFFF,image320,image26,NA,right,TRUE,1428.2000000001863
2,3,14,B,memory-resp,#1bbb20,#FFFFFF,image61,image26,NA,right,TRUE,1060.2999999998137
2,3,14,B,memory-resp,#ab3fa6,#FFFFFF,image79,image26,NA,right,TRUE,537.8999999999069
2,3,14,B,retrieval,NA,NA,NA,NA,image61,image61,TRUE,4499.4000000003725
2,3,14,B,retrieval,NA,NA,NA,NA,image320,image320,TRUE,2177.1999999997206
2,3,14,B,retrieval,NA,NA,NA,NA,image79,image79,TRUE,1530.6999999997206
2,3,14,B,retrieval,NA,NA,NA,NA,image94,image94,TRUE,564.5
2,3,15,B,memory-resp,#2d6e76,#FFFFFF,image381,image26,NA,right,TRUE,1758.2999999998137
2,3,15,B,memory-resp,#FFFFFF,#4d892a,image26,image399,NA,left,TRUE,941
2,3,15,B,memory-resp,#740fb8,#FFFFFF,image16,image26,NA,right,TRUE,907.1999999997206
2,3,15,B,memory-resp,#FFFFFF,#9f3a28,image26,image174,NA,left,TRUE,762.6999999997206
2,3,15,B,retrieval,NA,NA,NA,NA,image381,image381,TRUE,2023.5
2,3,15,B,retrieval,NA,NA,NA,NA,image16,image16,TRUE,3226.2999999998137
2,3,15,B,retrieval,NA,NA,NA,NA,image174,image174,TRUE,714.2000000001863
2,3,15,B,retrieval,NA,NA,NA,NA,image399,image399,TRUE,1181.2999999998137
2,4,P1,D,processing,#11c52c,#FFFFFF,image65,image102,NA,right,TRUE,1226.6000000000931
2,4,P1,D,processing,#c1a30b,#FFFFFF,image206,image419,NA,right,TRUE,1456.5
2,4,P1,D,processing,#863c81,#FFFFFF,image77,image126,NA,right,FALSE,650.6999999997206
2,4,P1,D,processing,#385a94,#FFFFFF,image243,image241,NA,right,TRUE,1014.6000000000931
2,4,P2,D,processing,#1cb034,#FFFFFF,image34,image377,NA,left,TRUE,659.8999999999069
2,4,P2,D,processing,#293570,#FFFFFF,image323,image422,NA,right,TRUE,853.3000000002794
2,4,P2,D,processing,#d0118a,#FFFFFF,image72,image238,NA,right,TRUE,738.1999999997206
2,4,P2,D,processing,#715c28,#FFFFFF,image428,image262,NA,left,TRUE,994.5
2,4,P3,D,processing,#0d6c8c,#FFFFFF,image201,image57,NA,left,TRUE,852.7999999998137
2,4,P3,D,processing,#40b22e,#FFFFFF,image252,image381,NA,left,TRUE,1339
2,4,P3,D,processing,#6d1089,#FFFFFF,image331,image187,NA,right,TRUE,788.5999999996275
2,4,P3,D,processing,#a96232,#FFFFFF,image213,image29,NA,right,TRUE,730.6999999997206
2,4,P4,D,processing,#98901f,#FFFFFF,image159,image229,NA,left,TRUE,937.8999999999069
2,4,P4,D,processing,#0b308e,#FFFFFF,image308,image298,NA,right,TRUE,774.7999999998137
2,4,P4,D,processing,#3e7457,#FFFFFF,image107,image168,NA,left,TRUE,944.5
2,4,P4,D,processing,#964f87,#FFFFFF,image403,image425,NA,right,TRUE,1126
2,4,P5,D,processing,#4a9130,#FFFFFF,image306,image163,NA,left,TRUE,874.2999999998137
2,4,P5,D,processing,#722f74,#FFFFFF,image45,image279,NA,right,TRUE,658.5
2,4,P5,D,processing,#0c72bb,#FFFFFF,image130,image20,NA,left,TRUE,698.8999999999069
2,4,P5,D,processing,#95370f,#FFFFFF,image375,image214,NA,right,TRUE,738
2,4,P6,D,processing,#1d81d3,#FFFFFF,image418,image413,NA,right,TRUE,701.0999999996275
2,4,P6,D,processing,#44723b,#FFFFFF,image360,image262,NA,left,TRUE,851.2999999998137
2,4,P6,D,processing,#d20fd2,#FFFFFF,image380,image113,NA,right,TRUE,706.5
2,4,P6,D,processing,#b16f48,#FFFFFF,image153,image340,NA,left,TRUE,717
2,4,P7,D,processing,#8bb01c,#FFFFFF,image250,image207,NA,left,TRUE,837.6999999997206
2,4,P7,D,processing,#3e7469,#FFFFFF,image323,image174,NA,right,TRUE,761.2000000001863
2,4,P7,D,processing,#764ab0,#FFFFFF,image79,image139,NA,left,TRUE,922.7999999998137
2,4,P7,D,processing,#97304a,#FFFFFF,image299,image218,NA,left,TRUE,641.7999999998137
2,4,P8,D,processing,#3d3d99,#FFFFFF,image190,image164,NA,left,TRUE,884.1000000000931
2,4,P8,D,processing,#76652d,#FFFFFF,image72,image157,NA,right,TRUE,630.3999999999069
2,4,P8,D,processing,#18d851,#FFFFFF,image257,image187,NA,right,TRUE,647.5999999996275
2,4,P8,D,processing,#9b4687,#FFFFFF,image420,image57,NA,left,TRUE,662.0999999996275
2,4,P9,D,processing,#25a314,#FFFFFF,image57,image228,NA,right,TRUE,727.2999999998137
2,4,P9,D,processing,#7f519a,#FFFFFF,image173,image244,NA,left,TRUE,784.2999999998137
2,4,P9,D,processing,#1fadd1,#FFFFFF,image415,image276,NA,right,TRUE,740.6999999997206
2,4,P9,D,processing,#eb2c0f,#FFFFFF,image355,image156,NA,left,TRUE,638.9000000003725
2,4,P10,D,processing,#93843e,#FFFFFF,image333,image204,NA,right,TRUE,633.9000000003725
2,4,P10,D,processing,#1b54c5,#FFFFFF,image252,image95,NA,left,TRUE,930.4000000003725
2,4,P10,D,processing,#35974f,#FFFFFF,image389,image130,NA,right,TRUE,634.0999999996275
2,4,P10,D,processing,#a14f81,#FFFFFF,image102,image308,NA,left,TRUE,666.9000000003725
2,4,P11,D,processing,#822d21,#FFFFFF,image31,image57,NA,left,TRUE,674.3999999999069
2,4,P11,D,processing,#2d6f76,#FFFFFF,image317,image414,NA,right,TRUE,690.2999999998137
2,4,P11,D,processing,#3f9c26,#FFFFFF,image3,image388,NA,right,TRUE,724.2000000001863
2,4,P11,D,processing,#6b1d96,#FFFFFF,image150,image308,NA,left,TRUE,827.2000000001863
2,4,P12,D,processing,#0d239b,#FFFFFF,image389,image102,NA,right,TRUE,779.3999999999069
2,4,P12,D,processing,#91932a,#FFFFFF,image416,image213,NA,left,TRUE,590.1000000000931
2,4,P12,D,processing,#1cd46f,#FFFFFF,image136,image308,NA,left,TRUE,941.1000000000931
2,4,P12,D,processing,#ab4989,#FFFFFF,image173,image245,NA,left,TRUE,510.8000000002794
2,4,P13,D,processing,#0aae0a,#FFFFFF,image147,image148,NA,right,TRUE,901.1000000000931
2,4,P13,D,processing,#c2a129,#FFFFFF,image288,image327,NA,left,TRUE,1065.6000000000931
2,4,P13,D,processing,#951388,#FFFFFF,image228,image59,NA,left,TRUE,619.8999999999069
2,4,P13,D,processing,#3663b0,#FFFFFF,image396,image95,NA,left,TRUE,961.1000000000931
2,4,P14,D,processing,#677c36,#FFFFFF,image330,image312,NA,left,TRUE,636.3000000002794
2,4,P14,D,processing,#4d4294,#FFFFFF,image357,image5,NA,left,FALSE,749
2,4,P14,D,processing,#2b978c,#FFFFFF,image17,image285,NA,right,TRUE,837.2000000001863
2,4,P14,D,processing,#a62642,#FFFFFF,image400,image425,NA,left,FALSE,679.7999999998137
2,4,P15,D,processing,#3c6780,#FFFFFF,image120,image147,NA,left,TRUE,676
2,4,P15,D,processing,#c20fa4,#FFFFFF,image38,image243,NA,right,TRUE,694.1000000005588
2,4,P15,D,processing,#835820,#FFFFFF,image45,image168,NA,right,FALSE,661.6000000005588
2,4,P15,D,processing,#447e3e,#FFFFFF,image371,image65,NA,right,TRUE,1256.5
2,4,P16,D,processing,#2f3992,#FFFFFF,image425,image403,NA,left,TRUE,877.2999999998137
2,4,P16,D,processing,#646335,#FFFFFF,image82,image45,NA,left,TRUE,985.5
2,4,P16,D,processing,#953258,#FFFFFF,image334,image363,NA,left,TRUE,1395.2999999998137
2,4,P16,D,processing,#169855,#FFFFFF,image190,image61,NA,left,TRUE,1317.199999999255
2,4,P17,D,processing,#862187,#FFFFFF,image319,image269,NA,left,FALSE,804.0999999996275
2,4,P17,D,processing,#26537e,#FFFFFF,image297,image176,NA,right,TRUE,827.2999999998137
2,4,P17,D,processing,#c47827,#FFFFFF,image73,image393,NA,right,TRUE,637.0999999996275
2,4,P17,D,processing,#1e971c,#FFFFFF,image43,image63,NA,right,TRUE,802.1000000005588
2,4,P18,D,processing,#c95726,#FFFFFF,image279,image303,NA,left,TRUE,860.5
2,4,P18,D,processing,#6f3d8a,#FFFFFF,image59,image154,NA,right,TRUE,775.5
2,4,P18,D,processing,#118ab6,#FFFFFF,image355,image330,NA,left,TRUE,950.2999999998137
2,4,P18,D,processing,#429640,#FFFFFF,image431,image142,NA,left,TRUE,1237.2999999998137
2,4,P19,D,processing,#4f719c,#FFFFFF,image110,image373,NA,right,TRUE,774
2,4,P19,D,processing,#2fbc31,#FFFFFF,image318,image107,NA,right,TRUE,668.9000000003725
2,4,P19,D,processing,#d18f23,#FFFFFF,image139,image214,NA,right,TRUE,910.2000000001863
2,4,P19,D,processing,#6c3366,#FFFFFF,image65,image222,NA,right,TRUE,1269.1000000005588
2,4,P20,D,processing,#91aa13,#FFFFFF,image164,image187,NA,right,TRUE,688.5
2,4,P20,D,processing,#504fab,#FFFFFF,image347,image217,NA,left,TRUE,723.7000000001863
2,4,P20,D,processing,#1fc165,#FFFFFF,image40,image88,NA,left,TRUE,724.5999999996275
2,4,P20,D,processing,#a02261,#FFFFFF,image408,image278,NA,right,TRUE,1315
2,4,P21,D,processing,#24bc78,#FFFFFF,image273,image255,NA,left,TRUE,684.9000000003725
2,4,P21,D,processing,#c1c62a,#FFFFFF,image298,image194,NA,right,TRUE,1459.3999999994412
2,4,P21,D,processing,#90184c,#FFFFFF,image357,image137,NA,right,TRUE,943
2,4,P21,D,processing,#234bb8,#FFFFFF,image68,image98,NA,left,TRUE,1131.7999999998137
2,4,P22,D,processing,#20cfbb,#FFFFFF,image288,image12,NA,left,TRUE,688.4000000003725
2,4,P22,D,processing,#71209d,#FFFFFF,image292,image306,NA,right,TRUE,747.0999999996275
2,4,P22,D,processing,#9f2335,#FFFFFF,image187,image99,NA,left,TRUE,829
2,4,P22,D,processing,#a3e316,#FFFFFF,image214,image379,NA,left,TRUE,660.7999999998137
2,4,P23,D,processing,#d51522,#FFFFFF,image381,image176,NA,right,TRUE,827.5999999996275
2,4,P23,D,processing,#798131,#FFFFFF,image72,image24,NA,right,TRUE,723.7999999998137
2,4,P23,D,processing,#319685,#FFFFFF,image305,image118,NA,right,TRUE,635.4000000003725
2,4,P23,D,processing,#503d94,#FFFFFF,image195,image255,NA,left,TRUE,886.5
2,4,P24,D,processing,#217f82,#FFFFFF,image368,image109,NA,left,TRUE,687
2,4,P24,D,processing,#8f4d50,#FFFFFF,image56,image89,NA,left,TRUE,1058.9000000003725
2,4,P24,D,processing,#b0de0d,#FFFFFF,image216,image104,NA,left,TRUE,883.8999999994412
2,4,P24,D,processing,#3a17d3,#FFFFFF,image244,image226,NA,right,TRUE,937.5
2,4,P25,D,processing,#180c9d,#FFFFFF,image189,image240,NA,left,TRUE,848
2,4,P25,D,processing,#862354,#FFFFFF,image241,image99,NA,left,TRUE,629.2999999998137
2,4,P25,D,processing,#13965b,#FFFFFF,image168,image194,NA,right,TRUE,985.3999999994412
2,4,P25,D,processing,#7b991a,#FFFFFF,image379,image280,NA,right,TRUE,810.8999999994412
2,4,1,D,memory-resp,#58358d,#FFFFFF,image400,image335,NA,left,TRUE,1674.2000000001863
2,4,1,D,memory-resp,#ba404e,#FFFFFF,image336,image293,NA,right,TRUE,1160.5999999996275
2,4,1,D,memory-resp,#42b89c,#FFFFFF,image7,image214,NA,right,TRUE,1060.5999999996275
2,4,1,D,memory-resp,#7a8731,#FFFFFF,image325,image180,NA,left,TRUE,1433.1000000005588
2,4,1,D,retrieval,NA,NA,NA,NA,image400,image400,TRUE,1538
2,4,1,D,retrieval,NA,NA,NA,NA,image325,image325,TRUE,958.4000000003725
2,4,1,D,retrieval,NA,NA,NA,NA,image336,image336,TRUE,1423
2,4,1,D,retrieval,NA,NA,NA,NA,image7,image7,TRUE,880.9000000003725
2,4,2,D,memory-resp,#278415,#FFFFFF,image215,image407,NA,left,TRUE,1635.5999999996275
2,4,2,D,memory-resp,#31abc4,#FFFFFF,image101,image98,NA,left,TRUE,1405
2,4,2,D,memory-resp,#76432d,#FFFFFF,image206,image273,NA,right,TRUE,1016.0999999996275
2,4,2,D,memory-resp,#672a84,#FFFFFF,image96,image72,NA,left,TRUE,1355.2999999998137
2,4,2,D,retrieval,NA,NA,NA,NA,image215,image215,TRUE,2072.4000000003725
2,4,2,D,retrieval,NA,NA,NA,NA,image96,image96,TRUE,3011.699999999255
2,4,2,D,retrieval,NA,NA,NA,NA,image206,image206,TRUE,1758.5999999996275
2,4,2,D,retrieval,NA,NA,NA,NA,image101,image101,TRUE,559.4000000003725
2,4,3,D,memory-resp,#29c224,#FFFFFF,image230,image108,NA,left,TRUE,1250.7999999998137
2,4,3,D,memory-resp,#1e63a4,#FFFFFF,image393,image3,NA,left,TRUE,612.3000000007451
2,4,3,D,memory-resp,#c6662a,#FFFFFF,image330,image6,NA,left,TRUE,976.7000000001863
2,4,3,D,memory-resp,#752d8b,#FFFFFF,image149,image200,NA,left,TRUE,971.5
2,4,3,D,retrieval,NA,NA,NA,NA,image393,image393,TRUE,1268.7999999998137
2,4,3,D,retrieval,NA,NA,NA,NA,image149,image149,TRUE,1454.1000000005588
2,4,3,D,retrieval,NA,NA,NA,NA,image230,image230,TRUE,756.6000000005588
2,4,3,D,retrieval,NA,NA,NA,NA,image330,image330,TRUE,527.7999999998137
2,4,4,D,memory-resp,#897b48,#FFFFFF,image83,image379,NA,left,TRUE,2369.2999999998137
2,4,4,D,memory-resp,#419551,#FFFFFF,image254,image363,NA,left,TRUE,1574.4000000003725
2,4,4,D,memory-resp,#752579,#FFFFFF,image191,image7,NA,left,TRUE,1387.6000000005588
2,4,4,D,memory-resp,#344565,#FFFFFF,image206,image88,NA,left,TRUE,1239
2,4,4,D,retrieval,NA,NA,NA,NA,image191,image191,TRUE,1705
2,4,4,D,retrieval,NA,NA,NA,NA,image83,image83,TRUE,2629.9000000003725
2,4,4,D,retrieval,NA,NA,NA,NA,image254,image254,TRUE,990.5999999996275
2,4,4,D,retrieval,NA,NA,NA,NA,image206,image206,TRUE,1735.4000000003725
2,4,5,D,memory-resp,#803733,#FFFFFF,image54,image253,NA,right,TRUE,1863.699999999255
2,4,5,D,memory-resp,#1588b2,#FFFFFF,image357,image55,NA,right,TRUE,1268.3999999994412
2,4,5,D,memory-resp,#5c8a3d,#FFFFFF,image34,image8,NA,left,TRUE,1681.0999999996275
2,4,5,D,memory-resp,#8c34b2,#FFFFFF,image29,image320,NA,right,TRUE,1182.4000000003725
2,4,5,D,retrieval,NA,NA,NA,NA,image357,image357,TRUE,1750.1000000005588
2,4,5,D,retrieval,NA,NA,NA,NA,image34,image320,FALSE,4329.899999999441
2,4,5,D,retrieval,NA,NA,NA,NA,image29,image34,FALSE,3078.5999999996275
2,4,5,D,retrieval,NA,NA,NA,NA,image54,image54,TRUE,847.5
2,4,6,D,memory-resp,#7b6c28,#FFFFFF,image82,image30,NA,left,TRUE,1843.7999999998137
2,4,6,D,memory-resp,#221e85,#FFFFFF,image361,image73,NA,left,TRUE,1000.7999999998137
2,4,6,D,memory-resp,#199a5e,#FFFFFF,image228,image156,NA,left,TRUE,1610.2999999998137
2,4,6,D,memory-resp,#8f1e5e,#FFFFFF,image273,image45,NA,left,TRUE,625.7999999998137
2,4,6,D,retrieval,NA,NA,NA,NA,image82,image82,TRUE,1483.7000000001863
2,4,6,D,retrieval,NA,NA,NA,NA,image273,image273,TRUE,3898.2999999998137
2,4,6,D,retrieval,NA,NA,NA,NA,image361,image361,TRUE,2106.2000000001863
2,4,6,D,retrieval,NA,NA,NA,NA,image228,image273,FALSE,1894.5999999996275
2,4,7,D,memory-resp,#5b3a82,#FFFFFF,image257,image326,NA,left,TRUE,1560.5999999996275
2,4,7,D,memory-resp,#920c0c,#FFFFFF,image68,image409,NA,left,TRUE,836
2,4,7,D,memory-resp,#48990b,#FFFFFF,image40,image329,NA,left,TRUE,838.2000000001863
2,4,7,D,memory-resp,#1bcdda,#FFFFFF,image376,image79,NA,right,TRUE,1825.0999999996275
2,4,7,D,retrieval,NA,NA,NA,NA,image257,image257,TRUE,1324.7999999998137
2,4,7,D,retrieval,NA,NA,NA,NA,image376,image376,TRUE,1693.4000000003725
2,4,7,D,retrieval,NA,NA,NA,NA,image68,image68,TRUE,2361.699999999255
2,4,7,D,retrieval,NA,NA,NA,NA,image40,image79,FALSE,1325.5999999996275
2,4,8,D,memory-resp,#20cb3f,#FFFFFF,image332,image263,NA,left,TRUE,2376
2,4,8,D,memory-resp,#a5459c,#FFFFFF,image165,image415,NA,right,TRUE,1539.7000000001863
2,4,8,D,memory-resp,#386194,#FFFFFF,image243,image171,NA,left,TRUE,1573.2000000001863
2,4,8,D,memory-resp,#9e881f,#FFFFFF,image8,image338,NA,left,TRUE,974.5
2,4,8,D,retrieval,NA,NA,NA,NA,image165,image165,TRUE,1466.3999999994412
2,4,8,D,retrieval,NA,NA,NA,NA,image332,image332,TRUE,1815.5
2,4,8,D,retrieval,NA,NA,NA,NA,image243,image243,TRUE,1189.8999999994412
2,4,8,D,retrieval,NA,NA,NA,NA,image8,image8,TRUE,2210.4000000003725
2,4,9,D,memory-resp,#3c868b,#FFFFFF,image300,image55,NA,left,TRUE,1951.199999999255
2,4,9,D,memory-resp,#a53712,#FFFFFF,image195,image377,NA,left,TRUE,803.4000000003725
2,4,9,D,memory-resp,#3f9414,#FFFFFF,image293,image39,NA,left,TRUE,936.7000000001863
2,4,9,D,memory-resp,#5b396a,#FFFFFF,image307,image233,NA,left,TRUE,1154.2000000001863
2,4,9,D,retrieval,NA,NA,NA,NA,image300,image300,TRUE,2335.4000000003725
2,4,9,D,retrieval,NA,NA,NA,NA,image307,image307,TRUE,2594.0999999996275
2,4,9,D,retrieval,NA,NA,NA,NA,image195,image195,TRUE,1982.7000000001863
2,4,9,D,retrieval,NA,NA,NA,NA,image293,image293,TRUE,1256.5999999996275
2,4,10,D,memory-resp,#96574f,#FFFFFF,image318,image273,NA,right,TRUE,1193
2,4,10,D,memory-resp,#449297,#FFFFFF,image103,image208,NA,left,TRUE,1611.5999999996275
2,4,10,D,memory-resp,#74c337,#FFFFFF,image24,image49,NA,left,TRUE,2180.2000000001863
2,4,10,D,memory-resp,#7f4899,#FFFFFF,image324,image167,NA,left,FALSE,1393.5
2,4,10,D,retrieval,NA,NA,NA,NA,image103,image103,TRUE,1529.0999999996275
2,4,10,D,retrieval,NA,NA,NA,NA,image318,image318,TRUE,1846.3999999994412
2,4,10,D,retrieval,NA,NA,NA,NA,image324,image324,TRUE,1361.800000000745
2,4,10,D,retrieval,NA,NA,NA,NA,image24,image24,TRUE,1518.7000000001863
2,4,11,D,memory-resp,#68aa22,#FFFFFF,image28,image126,NA,right,TRUE,2098.399999999441
2,4,11,D,memory-resp,#88495a,#FFFFFF,image410,image214,NA,right,TRUE,2167.7000000001863
2,4,11,D,memory-resp,#448887,#FFFFFF,image215,image118,NA,right,FALSE,932.6000000005588
2,4,11,D,memory-resp,#5934c5,#FFFFFF,image43,image317,NA,left,TRUE,1354.4000000003725
2,4,11,D,retrieval,NA,NA,NA,NA,image410,image410,TRUE,4314.299999999814
2,4,11,D,retrieval,NA,NA,NA,NA,image43,image214,FALSE,3109.699999999255
2,4,11,D,retrieval,NA,NA,NA,NA,image28,image28,TRUE,1249.4000000003725
2,4,11,D,retrieval,NA,NA,NA,NA,image215,image43,FALSE,2782.5
2,4,12,D,memory-resp,#328f61,#FFFFFF,image45,image157,NA,right,TRUE,1870.4000000003725
2,4,12,D,memory-resp,#a9800f,#FFFFFF,image326,image60,NA,right,TRUE,1586.2999999998137
2,4,12,D,memory-resp,#101689,#FFFFFF,image215,image167,NA,left,TRUE,1803
2,4,12,D,memory-resp,#a03776,#FFFFFF,image19,image285,NA,right,TRUE,1048.2999999998137
2,4,12,D,retrieval,NA,NA,NA,NA,image326,image326,TRUE,2680.5
2,4,12,D,retrieval,NA,NA,NA,NA,image215,image19,FALSE,1526.5999999996275
2,4,12,D,retrieval,NA,NA,NA,NA,image45,image45,TRUE,1545.6000000005588
2,4,12,D,retrieval,NA,NA,NA,NA,image19,image215,FALSE,3270.399999999441
2,4,13,D,memory-resp,#a115b7,#FFFFFF,image301,image361,NA,left,TRUE,2358.2000000001863
2,4,13,D,memory-resp,#9c602b,#FFFFFF,image13,image120,NA,right,TRUE,1964
2,4,13,D,memory-resp,#247abc,#FFFFFF,image43,image239,NA,left,TRUE,1305.0999999996275
2,4,13,D,memory-resp,#55b33d,#FFFFFF,image192,image72,NA,left,TRUE,1669.5
2,4,13,D,retrieval,NA,NA,NA,NA,image13,image13,TRUE,2042.8999999994412
2,4,13,D,retrieval,NA,NA,NA,NA,image301,image301,TRUE,1798.9000000003725
2,4,13,D,retrieval,NA,NA,NA,NA,image192,image192,TRUE,4846
2,4,13,D,retrieval,NA,NA,NA,NA,image43,image192,FALSE,613.5
2,4,14,D,memory-resp,#26577d,#FFFFFF,image96,image79,NA,right,TRUE,1985.199999999255
2,4,14,D,memory-resp,#377133,#FFFFFF,image147,image149,NA,NULL,FALSE,NA
2,4,14,D,memory-resp,#c18b33,#FFFFFF,image164,image187,NA,right,TRUE,1198.5999999996275
2,4,14,D,memory-resp,#9850a5,#FFFFFF,image248,image269,NA,right,FALSE,1321.7000000001863
2,4,14,D,retrieval,NA,NA,NA,NA,image147,image149,FALSE,3683.100000000559
2,4,14,D,retrieval,NA,NA,NA,NA,image248,image269,FALSE,3169.5999999996275
2,4,14,D,retrieval,NA,NA,NA,NA,image96,image96,TRUE,1989.9000000003725
2,4,14,D,retrieval,NA,NA,NA,NA,image164,image164,TRUE,672.4000000003725
2,4,15,D,memory-resp,#2f49ca,#FFFFFF,image253,image34,NA,right,TRUE,1843.2000000001863
2,4,15,D,memory-resp,#ae8f32,#FFFFFF,image164,image189,NA,right,TRUE,1765.9000000003725
2,4,15,D,memory-resp,#12d943,#FFFFFF,image341,image382,NA,right,TRUE,1781.0999999996275
2,4,15,D,memory-resp,#73306b,#FFFFFF,image362,image419,NA,right,TRUE,1272.0999999996275
2,4,15,D,retrieval,NA,NA,NA,NA,image362,image362,TRUE,980.2000000001863
2,4,15,D,retrieval,NA,NA,NA,NA,image341,image341,TRUE,1768.199999999255
2,4,15,D,retrieval,NA,NA,NA,NA,image253,image253,TRUE,2042.2999999998137
2,4,15,D,retrieval,NA,NA,NA,NA,image164,image419,FALSE,489.40000000037253
1,1,P1,C,processing,#477f90,#FFFFFF,image123,image26,NA,right,TRUE,1439.1999998092651
1,1,P1,C,processing,#724337,#FFFFFF,image230,image26,NA,left,TRUE,1737.0999999046326
1,1,P1,C,processing,#FFFFFF,#9f16e3,image26,image353,NA,left,TRUE,1520.6000003814697
1,1,P1,C,processing,#FFFFFF,#426e3a,image26,image391,NA,right,TRUE,1420.1999998092651
1,1,P2,C,processing,#FFFFFF,#ca167f,image26,image217,NA,left,TRUE,1493.5999999046326
1,1,P2,C,processing,#FFFFFF,#4a4695,image26,image232,NA,right,TRUE,1431.5
1,1,P2,C,processing,#40b06e,#FFFFFF,image209,image26,NA,right,TRUE,1229.5
1,1,P2,C,processing,#93a50d,#FFFFFF,image135,image26,NA,right,TRUE,1193.4000000953674
1,1,P3,C,processing,#FFFFFF,#8f429a,image26,image103,NA,right,TRUE,1105.7000002861023
1,1,P3,C,processing,#30b512,#FFFFFF,image145,image26,NA,right,TRUE,1267.4000000953674
1,1,P3,C,processing,#3d8ebd,#FFFFFF,image370,image26,NA,left,TRUE,1498.0999999046326
1,1,P3,C,processing,#c36a32,#FFFFFF,image266,image26,NA,right,TRUE,1978.8000001907349
1,1,P4,C,processing,#FFFFFF,#2f40ac,image26,image58,NA,left,TRUE,1383.2000002861023
1,1,P4,C,processing,#cb1579,#FFFFFF,image182,image26,NA,left,TRUE,998.1999998092651
1,1,P4,C,processing,#478a6b,#FFFFFF,image239,image26,NA,right,TRUE,1374.5999999046326
1,1,P4,C,processing,#FFFFFF,#a8a224,image26,image339,NA,left,TRUE,2020.0999999046326
1,1,P5,C,processing,#871d34,#FFFFFF,image273,image26,NA,left,TRUE,1004.7000002861023
1,1,P5,C,processing,#356963,#FFFFFF,image279,image26,NA,NULL,FALSE,NA
1,1,P5,C,processing,#add11f,#FFFFFF,image112,image26,NA,right,TRUE,1318
1,1,P5,C,processing,#FFFFFF,#3d3375,image26,image124,NA,right,TRUE,1021.7000002861023
1,1,P6,C,processing,#36a144,#FFFFFF,image44,image26,NA,right,TRUE,1151.1000003814697
1,1,P6,C,processing,#FFFFFF,#775028,image26,image63,NA,right,TRUE,977.4000000953674
1,1,P6,C,processing,#2a8cc0,#FFFFFF,image52,image26,NA,left,TRUE,1072.0999999046326
1,1,P6,C,processing,#790a8f,#FFFFFF,image181,image26,NA,left,TRUE,1183.7999997138977
1,1,P7,C,processing,#FFFFFF,#bccf0c,image26,image202,NA,left,TRUE,1784.5999999046326
1,1,P7,C,processing,#FFFFFF,#0db588,image26,image226,NA,right,TRUE,1261.2999997138977
1,1,P7,C,processing,#af2840,#FFFFFF,image351,image26,NA,left,TRUE,1994
1,1,P7,C,processing,#FFFFFF,#493384,image26,image213,NA,left,TRUE,1254.0999999046326
1,1,P8,C,processing,#FFFFFF,#4ca49d,image26,image134,NA,left,TRUE,1399.6999998092651
1,1,P8,C,processing,#b93158,#FFFFFF,image72,image26,NA,right,TRUE,1083.5999999046326
1,1,P8,C,processing,#92a451,#FFFFFF,image388,image26,NA,left,TRUE,2468.7999997138977
1,1,P8,C,processing,#4a0891,#FFFFFF,image338,image26,NA,right,TRUE,1238.0999999046326
1,1,P9,C,processing,#FFFFFF,#2f7983,image26,image364,NA,left,TRUE,1310.6999998092651
1,1,P9,C,processing,#6cb512,#FFFFFF,image326,image26,NA,right,TRUE,1231.8000001907349
1,1,P9,C,processing,#FFFFFF,#7d43ad,image26,image79,NA,right,TRUE,1215.2999997138977
1,1,P9,C,processing,#a94228,#FFFFFF,image416,image26,NA,left,TRUE,1159.8000001907349
1,1,P10,C,processing,#8d3c96,#FFFFFF,image305,image26,NA,right,TRUE,1141.1000003814697
1,1,P10,C,processing,#FFFFFF,#456831,image26,image47,NA,left,TRUE,1460.4000000953674
1,1,P10,C,processing,#4a858c,#FFFFFF,image269,image26,NA,left,TRUE,1217
1,1,P10,C,processing,#FFFFFF,#b95f3c,image26,image293,NA,right,TRUE,1327.6999998092651
1,1,P11,C,processing,#427594,#FFFFFF,image260,image26,NA,left,TRUE,996.5
1,1,P11,C,processing,#FFFFFF,#924d93,image26,image7,NA,left,TRUE,1103.5999999046326
1,1,P11,C,processing,#FFFFFF,#28e114,image26,image421,NA,left,TRUE,1298.1000003814697
1,1,P11,C,processing,#c26f38,#FFFFFF,image392,image26,NA,left,TRUE,1226
1,1,P12,C,processing,#FFFFFF,#5f8d3a,image26,image216,NA,right,TRUE,1141.0999999046326
1,1,P12,C,processing,#FFFFFF,#734893,image26,image73,NA,left,TRUE,1036.1999998092651
1,1,P12,C,processing,#349db2,#FFFFFF,image61,image26,NA,right,TRUE,1902.2000002861023
1,1,P12,C,processing,#FFFFFF,#993d33,image26,image49,NA,left,TRUE,1238.5
1,1,P13,C,processing,#FFFFFF,#3156b9,image26,image284,NA,right,TRUE,1395.5
1,1,P13,C,processing,#0c9232,#FFFFFF,image115,image26,NA,right,TRUE,1189.5
1,1,P13,C,processing,#FFFFFF,#86195f,image26,image290,NA,left,TRUE,1534.1999998092651
1,1,P13,C,processing,#8a7c24,#FFFFFF,image194,image26,NA,left,TRUE,1387
1,1,P14,C,processing,#811d34,#FFFFFF,image404,image26,NA,left,FALSE,1492
1,1,P14,C,processing,#FFFFFF,#451c97,image26,image286,NA,right,TRUE,1618.9000000953674
1,1,P14,C,processing,#FFFFFF,#749537,image26,image254,NA,right,TRUE,1287.1000003814697
1,1,P14,C,processing,#FFFFFF,#18e2cb,image26,image294,NA,left,TRUE,2105.5999999046326
1,1,P15,C,processing,#cb109c,#FFFFFF,image248,image26,NA,left,TRUE,1381.0999999046326
1,1,P15,C,processing,#FFFFFF,#23449f,image26,image35,NA,right,TRUE,1520.5
1,1,P15,C,processing,#1dc33c,#FFFFFF,image138,image26,NA,right,TRUE,1180.4000000953674
1,1,P15,C,processing,#997f0a,#FFFFFF,image187,image26,NA,left,TRUE,1430.5
1,1,P16,C,processing,#FFFFFF,#a014db,image26,image412,NA,left,TRUE,1755.2999997138977
1,1,P16,C,processing,#FFFFFF,#3c79be,image26,image4,NA,left,TRUE,2248.5
1,1,P16,C,processing,#358316,#FFFFFF,image262,image26,NA,right,TRUE,1467.5
1,1,P16,C,processing,#774e31,#FFFFFF,image410,image26,NA,right,TRUE,1462.4000000953674
1,1,P17,C,processing,#FFFFFF,#a7a93d,image26,image189,NA,right,TRUE,1365.3000001907349
1,1,P17,C,processing,#FFFFFF,#1cab58,image26,image133,NA,right,TRUE,1384.5999999046326
1,1,P17,C,processing,#FFFFFF,#0d0995,image26,image78,NA,right,TRUE,1135.5999999046326
1,1,P17,C,processing,#FFFFFF,#b82e7e,image26,image15,NA,left,TRUE,1825.0999999046326
1,1,P18,C,processing,#FFFFFF,#e70dca,image26,image384,NA,left,FALSE,1759.9000000953674
1,1,P18,C,processing,#6f6034,#FFFFFF,image178,image26,NA,left,TRUE,1107.2000002861023
1,1,P18,C,processing,#FFFFFF,#526a98,image26,image399,NA,left,TRUE,1231.1000003814697
1,1,P18,C,processing,#15ac39,#FFFFFF,image340,image26,NA,right,TRUE,1741.5999999046326
1,1,P19,C,processing,#FFFFFF,#0e9acd,image26,image264,NA,left,TRUE,1544.0999999046326
1,1,P19,C,processing,#2ab120,#FFFFFF,image130,image26,NA,left,TRUE,1937.2999997138977
1,1,P19,C,processing,#a55b4a,#FFFFFF,image228,image26,NA,right,FALSE,1829.5
1,1,P19,C,processing,#9621c4,#FFFFFF,image410,image26,NA,right,TRUE,1185.5
1,1,P20,C,processing,#FFFFFF,#963180,image26,image1,NA,left,TRUE,1545.0999999046326
1,1,P20,C,processing,#23861d,#FFFFFF,image145,image26,NA,right,TRUE,1607.4000000953674
1,1,P20,C,processing,#866a19,#FFFFFF,image258,image26,NA,right,TRUE,1061.0999999046326
1,1,P20,C,processing,#2a3c7e,#FFFFFF,image59,image26,NA,right,TRUE,1126.6000003814697
1,1,P21,C,processing,#FFFFFF,#ae3258,image26,image424,NA,right,TRUE,1387.3000001907349
1,1,P21,C,processing,#FFFFFF,#48a8a8,image26,image32,NA,right,TRUE,1277.1000003814697
1,1,P21,C,processing,#6931a5,#FFFFFF,image301,image26,NA,left,TRUE,1518.6000003814697
1,1,P21,C,processing,#FFFFFF,#7d9b50,image26,image173,NA,right,TRUE,1375.9000000953674
1,1,P22,C,processing,#FFFFFF,#3d8563,image26,image119,NA,left,TRUE,1689.2999997138977
1,1,P22,C,processing,#849b41,#FFFFFF,image356,image26,NA,right,TRUE,1704.5999999046326
1,1,P22,C,processing,#8c4556,#FFFFFF,image397,image26,NA,right,TRUE,1022.6999998092651
1,1,P22,C,processing,#6131c9,#FFFFFF,image94,image26,NA,right,TRUE,1143.3000001907349
1,1,P23,C,processing,#FFFFFF,#41989b,image26,image107,NA,right,TRUE,1760
1,1,P23,C,processing,#6d8b46,#FFFFFF,image197,image26,NA,left,TRUE,1630
1,1,P23,C,processing,#FFFFFF,#6d40b0,image26,image266,NA,left,TRUE,1096.2999997138977
1,1,P23,C,processing,#FFFFFF,#9d1021,image26,image421,NA,left,TRUE,1036.5
1,1,P24,C,processing,#272f72,#FFFFFF,image38,image26,NA,right,TRUE,1409
1,1,P24,C,processing,#77275a,#FFFFFF,image20,image26,NA,right,TRUE,1139.4000000953674
1,1,P24,C,processing,#b48218,#FFFFFF,image194,image26,NA,left,TRUE,1559
1,1,P24,C,processing,#FFFFFF,#208d34,image26,image357,NA,left,TRUE,1312.8000001907349
1,1,P25,C,processing,#FFFFFF,#3e984f,image26,image111,NA,left,TRUE,1408.7000002861023
1,1,P25,C,processing,#FFFFFF,#0a5ca3,image26,image53,NA,left,TRUE,1121
1,1,P25,C,processing,#FFFFFF,#958141,image26,image258,NA,left,TRUE,1057.5
1,1,P25,C,processing,#FFFFFF,#900987,image26,image296,NA,left,TRUE,1051.4000000953674
1,1,1,C,memory-resp,#6b763d,#FFFFFF,image53,image26,NA,right,TRUE,1701.3000001907349
1,1,1,C,memory-resp,#FFFFFF,#a25368,image26,image57,NA,left,TRUE,1123.2000002861023
1,1,1,C,memory-resp,#0e9062,#FFFFFF,image419,image26,NA,left,TRUE,1337.9000000953674
1,1,1,C,memory-resp,#FFFFFF,#3e2277,image26,image115,NA,left,TRUE,1608.2999997138977
1,1,1,C,retrieval,NA,NA,NA,NA,image53,image57,FALSE,5211.699999809265
1,1,1,C,retrieval,NA,NA,NA,NA,image419,image419,TRUE,2531.5
1,1,1,C,retrieval,NA,NA,NA,NA,image115,image115,TRUE,1253.2000002861023
1,1,1,C,retrieval,NA,NA,NA,NA,image57,image377,FALSE,3097.5
1,1,2,C,memory-resp,#992426,#FFFFFF,image284,image26,NA,left,TRUE,1326
1,1,2,C,memory-resp,#53bb1b,#FFFFFF,image350,image26,NA,right,TRUE,1588.7000002861023
1,1,2,C,memory-resp,#287386,#FFFFFF,image23,image26,NA,right,TRUE,1516.5999999046326
1,1,2,C,memory-resp,#FFFFFF,#6b17ba,image26,image49,NA,left,TRUE,1646.8000001907349
1,1,2,C,retrieval,NA,NA,NA,NA,image284,image284,TRUE,2185.9000000953674
1,1,2,C,retrieval,NA,NA,NA,NA,image350,image350,TRUE,2954.699999809265
1,1,2,C,retrieval,NA,NA,NA,NA,image49,image23,FALSE,2202.7000002861023
1,1,2,C,retrieval,NA,NA,NA,NA,image23,image49,FALSE,1300.7000002861023
1,1,3,C,memory-resp,#561fd6,#FFFFFF,image50,image26,NA,right,TRUE,1240.5
1,1,3,C,memory-resp,#3d9477,#FFFFFF,image399,image26,NA,right,TRUE,1030.9000000953674
1,1,3,C,memory-resp,#FFFFFF,#7fa013,image26,image174,NA,right,TRUE,2421
1,1,3,C,memory-resp,#af3c5c,#FFFFFF,image416,image26,NA,left,TRUE,1045.3000001907349
1,1,3,C,retrieval,NA,NA,NA,NA,image174,image174,TRUE,1779.5
1,1,3,C,retrieval,NA,NA,NA,NA,image399,image399,TRUE,1445.8999996185303
1,1,3,C,retrieval,NA,NA,NA,NA,image50,image416,FALSE,1523.3999996185303
1,1,3,C,retrieval,NA,NA,NA,NA,image416,image49,FALSE,2212.6000003814697
1,1,4,C,memory-resp,#128773,#FFFFFF,image49,image26,NA,right,TRUE,1194.5999999046326
1,1,4,C,memory-resp,#553d76,#FFFFFF,image7,image26,NA,right,TRUE,1153.1999998092651
1,1,4,C,memory-resp,#a34d61,#FFFFFF,image280,image26,NA,left,TRUE,1536.1999998092651
1,1,4,C,memory-resp,#FFFFFF,#639e1f,image26,image317,NA,left,TRUE,1382.2999997138977
1,1,4,C,retrieval,NA,NA,NA,NA,image49,image49,TRUE,1827.2000002861023
1,1,4,C,retrieval,NA,NA,NA,NA,image7,image57,FALSE,3089.9000000953674
1,1,4,C,retrieval,NA,NA,NA,NA,image280,image280,TRUE,827.6999998092651
1,1,4,C,retrieval,NA,NA,NA,NA,image317,image7,FALSE,1570.2999997138977
1,1,5,C,memory-resp,#FFFFFF,#3796a9,image26,image198,NA,left,TRUE,1641.8000001907349
1,1,5,C,memory-resp,#FFFFFF,#308128,image26,image419,NA,right,TRUE,1929
1,1,5,C,memory-resp,#FFFFFF,#963717,image26,image295,NA,left,TRUE,1998.7999997138977
1,1,5,C,memory-resp,#87498d,#FFFFFF,image369,image26,NA,left,TRUE,1231
1,1,5,C,retrieval,NA,NA,NA,NA,image369,image369,TRUE,2752.9000000953674
1,1,5,C,retrieval,NA,NA,NA,NA,image198,image259,FALSE,4134.5
1,1,5,C,retrieval,NA,NA,NA,NA,image295,image295,TRUE,1377.2999997138977
1,1,5,C,retrieval,NA,NA,NA,NA,image419,image419,TRUE,3243.1000003814697
1,1,6,C,memory-resp,#FFFFFF,#ac8d2f,image26,image195,NA,right,TRUE,1509.1999998092651
1,1,6,C,memory-resp,#FFFFFF,#14a93e,image26,image320,NA,right,TRUE,1422.2000002861023
1,1,6,C,memory-resp,#FFFFFF,#c52b82,image26,image228,NA,right,TRUE,1514.0999999046326
1,1,6,C,memory-resp,#1c27a0,#FFFFFF,image279,image26,NA,left,TRUE,1144.6999998092651
1,1,6,C,retrieval,NA,NA,NA,NA,image320,image320,TRUE,2665.2000002861023
1,1,6,C,retrieval,NA,NA,NA,NA,image228,image228,TRUE,5094.900000095367
1,1,6,C,retrieval,NA,NA,NA,NA,image279,image279,TRUE,8106.599999904633
1,1,6,C,retrieval,NA,NA,NA,NA,image195,image195,TRUE,645.9000000953674
1,1,7,C,memory-resp,#FFFFFF,#9a9a37,image26,image344,NA,left,TRUE,2055.0999999046326
1,1,7,C,memory-resp,#FFFFFF,#9b274a,image26,image133,NA,right,TRUE,1894.6999998092651
1,1,7,C,memory-resp,#FFFFFF,#37c37d,image26,image254,NA,right,TRUE,1149.6000003814697
1,1,7,C,memory-resp,#FFFFFF,#1a17ba,image26,image286,NA,right,TRUE,1085.5
1,1,7,C,retrieval,NA,NA,NA,NA,image133,image133,TRUE,3230
1,1,7,C,retrieval,NA,NA,NA,NA,image254,image286,FALSE,1715
1,1,7,C,retrieval,NA,NA,NA,NA,image344,image344,TRUE,4100.39999961853
1,1,7,C,retrieval,NA,NA,NA,NA,image286,image254,FALSE,1290.6999998092651
1,1,8,C,memory-resp,#FFFFFF,#9531a0,image26,image207,NA,NULL,FALSE,NA
1,1,8,C,memory-resp,#d74b0f,#FFFFFF,image223,image26,NA,left,TRUE,1144.1000003814697
1,1,8,C,memory-resp,#428221,#FFFFFF,image189,image26,NA,left,TRUE,1201.5999999046326
1,1,8,C,memory-resp,#FFFFFF,#288bcc,image26,image104,NA,left,TRUE,1269.4000000953674
1,1,8,C,retrieval,NA,NA,NA,NA,image189,image189,TRUE,1774.7000002861023
1,1,8,C,retrieval,NA,NA,NA,NA,image207,image207,TRUE,1867.0999999046326
1,1,8,C,retrieval,NA,NA,NA,NA,image104,image55,FALSE,3675.300000190735
1,1,8,C,retrieval,NA,NA,NA,NA,image223,image223,TRUE,925.4000000953674
1,1,9,C,memory-resp,#FFFFFF,#1154e4,image26,image295,NA,left,TRUE,1605.0999999046326
1,1,9,C,memory-resp,#FFFFFF,#af873c,image26,image77,NA,left,FALSE,1701
1,1,9,C,memory-resp,#753e6e,#FFFFFF,image315,image26,NA,right,TRUE,1465
1,1,9,C,memory-resp,#306940,#FFFFFF,image340,image26,NA,right,TRUE,1181.0999999046326
1,1,9,C,retrieval,NA,NA,NA,NA,image77,image315,FALSE,5455.199999809265
1,1,9,C,retrieval,NA,NA,NA,NA,image295,image295,TRUE,1919.0999999046326
1,1,9,C,retrieval,NA,NA,NA,NA,image315,image77,FALSE,2216.8999996185303
1,1,9,C,retrieval,NA,NA,NA,NA,image340,image340,TRUE,827.3999996185303
1,1,10,C,memory-resp,#512f6f,#FFFFFF,image124,image26,NA,left,TRUE,1918.8000001907349
1,1,10,C,memory-resp,#FFFFFF,#4a7c8c,image26,image223,NA,right,TRUE,1600.5
1,1,10,C,memory-resp,#722b27,#FFFFFF,image287,image26,NA,right,TRUE,1764.4000000953674
1,1,10,C,memory-resp,#7ae218,#FFFFFF,image296,image26,NA,right,TRUE,1397.5
1,1,10,C,retrieval,NA,NA,NA,NA,image124,image124,TRUE,1938.5
1,1,10,C,retrieval,NA,NA,NA,NA,image296,image287,FALSE,2005.7000002861023
1,1,10,C,retrieval,NA,NA,NA,NA,image223,image273,FALSE,4476
1,1,10,C,retrieval,NA,NA,NA,NA,image287,image223,FALSE,852.8000001907349
1,1,11,C,memory-resp,#FFFFFF,#af3c9c,image26,image407,NA,left,TRUE,1590.6999998092651
1,1,11,C,memory-resp,#FFFFFF,#908347,image26,image308,NA,left,TRUE,1308.7999997138977
1,1,11,C,memory-resp,#2c6d3f,#FFFFFF,image186,image26,NA,left,TRUE,1121
1,1,11,C,memory-resp,#FFFFFF,#1035ad,image26,image145,NA,left,TRUE,1378.3000001907349
1,1,11,C,retrieval,NA,NA,NA,NA,image407,image407,TRUE,2479.300000190735
1,1,11,C,retrieval,NA,NA,NA,NA,image186,image308,FALSE,1458.9000000953674
1,1,11,C,retrieval,NA,NA,NA,NA,image145,image186,FALSE,2540.5999999046326
1,1,11,C,retrieval,NA,NA,NA,NA,image308,image145,FALSE,720.2999997138977
1,1,12,C,memory-resp,#a63071,#FFFFFF,image394,image26,NA,right,TRUE,1423.0999999046326
1,1,12,C,memory-resp,#484e9d,#FFFFFF,image248,image26,NA,left,TRUE,1952.9000000953674
1,1,12,C,memory-resp,#9acd0e,#FFFFFF,image413,image26,NA,left,TRUE,1390.5
1,1,12,C,memory-resp,#FFFFFF,#45967f,image26,image262,NA,left,TRUE,1424.4000000953674
1,1,12,C,retrieval,NA,NA,NA,NA,image248,image248,TRUE,2537.699999809265
1,1,12,C,retrieval,NA,NA,NA,NA,image413,image413,TRUE,4242.699999809265
1,1,12,C,retrieval,NA,NA,NA,NA,image262,image307,FALSE,4609.599999904633
1,1,12,C,retrieval,NA,NA,NA,NA,image394,image394,TRUE,658.1999998092651
1,1,13,C,memory-resp,#FFFFFF,#47951d,image26,image70,NA,left,TRUE,1300.0999999046326
1,1,13,C,memory-resp,#923826,#FFFFFF,image88,image26,NA,right,TRUE,1442.0999999046326
1,1,13,C,memory-resp,#26797d,#FFFFFF,image339,image26,NA,right,TRUE,1633.5999999046326
1,1,13,C,memory-resp,#FFFFFF,#7739b1,image26,image314,NA,left,TRUE,1496.2000002861023
1,1,13,C,retrieval,NA,NA,NA,NA,image339,image314,FALSE,5196.300000190735
1,1,13,C,retrieval,NA,NA,NA,NA,image70,image314,FALSE,2103
1,1,13,C,retrieval,NA,NA,NA,NA,image314,image339,FALSE,2169.7999997138977
1,1,13,C,retrieval,NA,NA,NA,NA,image88,image88,TRUE,705.6999998092651
1,1,14,C,memory-resp,#b420bc,#FFFFFF,image413,image26,NA,left,TRUE,1166.0999999046326
1,1,14,C,memory-resp,#FFFFFF,#2657a6,image26,image207,NA,left,TRUE,1456.0999999046326
1,1,14,C,memory-resp,#FFFFFF,#a84c0b,image26,image385,NA,right,TRUE,1707.8999996185303
1,1,14,C,memory-resp,#2cc427,#FFFFFF,image296,image26,NA,right,TRUE,1360.9000000953674
1,1,14,C,retrieval,NA,NA,NA,NA,image296,image385,FALSE,1634.7000002861023
1,1,14,C,retrieval,NA,NA,NA,NA,image413,image207,FALSE,6186.400000095367
1,1,14,C,retrieval,NA,NA,NA,NA,image207,image22,FALSE,2785.5999999046326
1,1,14,C,retrieval,NA,NA,NA,NA,image385,image413,FALSE,879.1000003814697
1,1,15,C,memory-resp,#0a8f1e,#FFFFFF,image336,image26,NA,right,TRUE,1823.2999997138977
1,1,15,C,memory-resp,#FFFFFF,#5285a3,image26,image73,NA,left,TRUE,1259.8000001907349
1,1,15,C,memory-resp,#FFFFFF,#905e47,image26,image233,NA,left,TRUE,1388.0999999046326
1,1,15,C,memory-resp,#7c2e85,#FFFFFF,image205,image26,NA,right,FALSE,1056.2999997138977
1,1,15,C,retrieval,NA,NA,NA,NA,image336,image336,TRUE,1293.5999999046326
1,1,15,C,retrieval,NA,NA,NA,NA,image233,image233,TRUE,2469.699999809265
1,1,15,C,retrieval,NA,NA,NA,NA,image205,image205,TRUE,1532.0999999046326
1,1,15,C,retrieval,NA,NA,NA,NA,image73,image73,TRUE,4048.7000002861023
1,2,P1,B,processing,#99641e,#FFFFFF,image420,image26,NA,right,FALSE,993.7999997138977
1,2,P1,B,processing,#1d64b4,#FFFFFF,image419,image26,NA,right,FALSE,826.1000003814697
1,2,P1,B,processing,#FFFFFF,#9b368a,image26,image399,NA,left,TRUE,1326.5
1,2,P1,B,processing,#379a46,#FFFFFF,image370,image26,NA,right,FALSE,1596.7999997138977
1,2,P2,B,processing,#FFFFFF,#4b849b,image26,image222,NA,left,FALSE,944.1999998092651
1,2,P2,B,processing,#93552f,#FFFFFF,image215,image26,NA,right,FALSE,803.0999999046326
1,2,P2,B,processing,#5aa749,#FFFFFF,image12,image26,NA,right,TRUE,1072.5
1,2,P2,B,processing,#FFFFFF,#810cbb,image26,image60,NA,left,FALSE,745.5
1,2,P3,B,processing,#FFFFFF,#342a79,image26,image102,NA,left,FALSE,743.1999998092651
1,2,P3,B,processing,#FFFFFF,#a83458,image26,image393,NA,left,FALSE,777.6999998092651
1,2,P3,B,processing,#7eb83d,#FFFFFF,image248,image26,NA,right,FALSE,792.4000000953674
1,2,P3,B,processing,#FFFFFF,#2a7a67,image26,image425,NA,left,FALSE,742.5999999046326
1,2,P4,B,processing,#736c30,#FFFFFF,image138,image26,NA,right,TRUE,752.9000000953674
1,2,P4,B,processing,#FFFFFF,#31874c,image26,image142,NA,left,TRUE,729.5999999046326
1,2,P4,B,processing,#FFFFFF,#6c2d54,image26,image77,NA,left,FALSE,766.5999999046326
1,2,P4,B,processing,#203bb1,#FFFFFF,image286,image26,NA,right,FALSE,848.3000001907349
1,2,P5,B,processing,#FFFFFF,#304c69,image26,image195,NA,left,FALSE,800.2999997138977
1,2,P5,B,processing,#653569,#FFFFFF,image128,image26,NA,right,TRUE,763.9000000953674
1,2,P5,B,processing,#FFFFFF,#25c322,image26,image239,NA,left,TRUE,837
1,2,P5,B,processing,#FFFFFF,#bd7c2e,image26,image287,NA,left,TRUE,733.5
1,2,P6,B,processing,#a7162b,#FFFFFF,image49,image26,NA,right,TRUE,888.2000002861023
1,2,P6,B,processing,#FFFFFF,#a4c110,image26,image16,NA,left,FALSE,668.9000000953674
1,2,P6,B,processing,#2caf8c,#FFFFFF,image248,image26,NA,right,FALSE,745.0999999046326
1,2,P6,B,processing,#390ca1,#FFFFFF,image344,image26,NA,right,TRUE,851.5
1,2,P7,B,processing,#FFFFFF,#7ac729,image26,image172,NA,left,TRUE,824.9000000953674
1,2,P7,B,processing,#541cc4,#FFFFFF,image284,image26,NA,right,FALSE,853.3999996185303
1,2,P7,B,processing,#8a1e37,#FFFFFF,image91,image26,NA,right,FALSE,2052.2999997138977
1,2,P7,B,processing,#FFFFFF,#277c6e,image26,image39,NA,left,TRUE,995.9000000953674
1,2,P8,B,processing,#ac3f1b,#FFFFFF,image86,image26,NA,right,TRUE,957.5
1,2,P8,B,processing,#8938a3,#FFFFFF,image339,image26,NA,right,TRUE,986.0999999046326
1,2,P8,B,processing,#FFFFFF,#39a90a,image26,image425,NA,left,FALSE,1016.6999998092651
1,2,P8,B,processing,#FFFFFF,#54979c,image26,image263,NA,left,TRUE,1036.0999999046326
1,2,P9,B,processing,#83b91d,#FFFFFF,image331,image26,NA,right,TRUE,1016.0999999046326
1,2,P9,B,processing,#FFFFFF,#86132e,image26,image279,NA,left,FALSE,1018.4000000953674
1,2,P9,B,processing,#FFFFFF,#542eb2,image26,image32,NA,left,FALSE,778.9000000953674
1,2,P9,B,processing,#46917d,#FFFFFF,image395,image26,NA,right,TRUE,728.7000002861023
1,2,P10,B,processing,#FFFFFF,#306a7e,image26,image424,NA,left,FALSE,629.2000002861023
1,2,P10,B,processing,#b64f35,#FFFFFF,image261,image26,NA,right,TRUE,1582.5999999046326
1,2,P10,B,processing,#FFFFFF,#8334a2,image26,image171,NA,left,TRUE,564.1000003814697
1,2,P10,B,processing,#FFFFFF,#50a324,image26,image53,NA,left,TRUE,688.5999999046326
1,2,P11,B,processing,#3d467f,#FFFFFF,image79,image26,NA,right,FALSE,757.4000000953674
1,2,P11,B,processing,#FFFFFF,#1c8251,image26,image215,NA,left,FALSE,733.1000003814697
1,2,P11,B,processing,#b71f7f,#FFFFFF,image317,image26,NA,right,TRUE,916.5
1,2,P11,B,processing,#FFFFFF,#d4b111,image26,image292,NA,left,TRUE,658.3999996185303
1,2,P12,B,processing,#FFFFFF,#b21040,image26,image330,NA,left,FALSE,717.2000002861023
1,2,P12,B,processing,#FFFFFF,#5ca90a,image26,image104,NA,left,TRUE,729.9000000953674
1,2,P12,B,processing,#FFFFFF,#1c9276,image26,image411,NA,left,TRUE,847.7999997138977
1,2,P12,B,processing,#6d42a9,#FFFFFF,image61,image26,NA,right,TRUE,806
1,2,P13,B,processing,#859f1d,#FFFFFF,image91,image26,NA,right,FALSE,822.1999998092651
1,2,P13,B,processing,#FFFFFF,#6655a5,image26,image59,NA,left,TRUE,683.2999997138977
1,2,P13,B,processing,#FFFFFF,#2d7165,image26,image342,NA,left,FALSE,766.6999998092651
1,2,P13,B,processing,#FFFFFF,#961d55,image26,image254,NA,left,FALSE,640.5
1,2,P14,B,processing,#7a17de,#FFFFFF,image247,image26,NA,right,FALSE,713.1999998092651
1,2,P14,B,processing,#FFFFFF,#c31613,image26,image416,NA,left,FALSE,643.9000000953674
1,2,P14,B,processing,#158e8c,#FFFFFF,image15,image26,NA,right,TRUE,656.5
1,2,P14,B,processing,#FFFFFF,#79c11a,image26,image392,NA,left,FALSE,678
1,2,P15,B,processing,#4928c3,#FFFFFF,image91,image26,NA,right,FALSE,740.0999999046326
1,2,P15,B,processing,#863c57,#FFFFFF,image86,image26,NA,right,TRUE,912.6000003814697
1,2,P15,B,processing,#FFFFFF,#328b88,image26,image59,NA,left,TRUE,634.1999998092651
1,2,P15,B,processing,#FFFFFF,#819b31,image26,image215,NA,left,FALSE,717.9000000953674
1,2,P16,B,processing,#FFFFFF,#712d50,image26,image60,NA,left,FALSE,754.5
1,2,P16,B,processing,#1e0b9d,#FFFFFF,image293,image26,NA,right,FALSE,771.0999999046326
1,2,P16,B,processing,#a7aa41,#FFFFFF,image207,image26,NA,right,TRUE,866.8000001907349
1,2,P16,B,processing,#FFFFFF,#129b39,image26,image284,NA,left,FALSE,707.7999997138977
1,2,P17,B,processing,#0bad16,#FFFFFF,image35,image26,NA,right,FALSE,704.9000000953674
1,2,P17,B,processing,#baa240,#FFFFFF,image290,image26,NA,right,TRUE,828.0999999046326
1,2,P17,B,processing,#ad2e9a,#FFFFFF,image198,image26,NA,right,TRUE,1516.3999996185303
1,2,P17,B,processing,#FFFFFF,#2366d1,image26,image294,NA,left,TRUE,699.4000000953674
1,2,P18,B,processing,#3c7250,#FFFFFF,image176,image26,NA,right,FALSE,779.4000000953674
1,2,P18,B,processing,#FFFFFF,#8b6c37,image26,image378,NA,left,TRUE,637.2000002861023
1,2,P18,B,processing,#FFFFFF,#a10c66,image26,image335,NA,left,TRUE,2322.5999999046326
1,2,P18,B,processing,#FFFFFF,#545ba6,image26,image79,NA,left,FALSE,781
1,2,P19,B,processing,#2b736f,#FFFFFF,image195,image26,NA,right,FALSE,826.8000001907349
1,2,P19,B,processing,#783648,#FFFFFF,image110,image26,NA,right,TRUE,814.5
1,2,P19,B,processing,#4d19be,#FFFFFF,image263,image26,NA,right,TRUE,1034.6999998092651
1,2,P19,B,processing,#7c8a47,#FFFFFF,image239,image26,NA,right,TRUE,805.5
1,2,P20,B,processing,#FFFFFF,#488618,image26,image34,NA,left,FALSE,765.8000001907349
1,2,P20,B,processing,#FFFFFF,#bd361f,image26,image79,NA,left,FALSE,759.0999999046326
1,2,P20,B,processing,#FFFFFF,#61347f,image26,image17,NA,left,TRUE,872.6999998092651
1,2,P20,B,processing,#1aafbc,#FFFFFF,image235,image26,NA,right,TRUE,911.5
1,2,P21,B,processing,#2cc94e,#FFFFFF,image248,image26,NA,right,FALSE,702.0999999046326
1,2,P21,B,processing,#FFFFFF,#8b2786,image26,image189,NA,left,FALSE,803.4000000953674
1,2,P21,B,processing,#446c97,#FFFFFF,image269,image26,NA,right,FALSE,861.8000001907349
1,2,P21,B,processing,#b07b4a,#FFFFFF,image1,image26,NA,right,TRUE,973.3999996185303
1,2,P22,B,processing,#699933,#FFFFFF,image220,image26,NA,right,TRUE,872.1999998092651
1,2,P22,B,processing,#a91944,#FFFFFF,image296,image26,NA,right,TRUE,803.5999999046326
1,2,P22,B,processing,#FFFFFF,#5020a2,image26,image94,NA,left,TRUE,791.5
1,2,P22,B,processing,#22a078,#FFFFFF,image186,image26,NA,right,FALSE,796.7000002861023
1,2,P23,B,processing,#3d8529,#FFFFFF,image263,image26,NA,right,TRUE,836.7999997138977
1,2,P23,B,processing,#0fa2db,#FFFFFF,image280,image26,NA,right,FALSE,924.9000000953674
1,2,P23,B,processing,#945c42,#FFFFFF,image53,image26,NA,right,TRUE,886.0999999046326
1,2,P23,B,processing,#790a8f,#FFFFFF,image321,image26,NA,right,FALSE,937.1999998092651
1,2,P24,B,processing,#FFFFFF,#c332c0,image26,image370,NA,left,FALSE,859.4000000953674
1,2,P24,B,processing,#FFFFFF,#395dc0,image26,image260,NA,left,FALSE,951.5
1,2,P24,B,processing,#FFFFFF,#19802a,image26,image363,NA,left,TRUE,884.4000000953674
1,2,P24,B,processing,#856f19,#FFFFFF,image91,image26,NA,right,FALSE,902.5
1,2,P25,B,processing,#258e2f,#FFFFFF,image385,image26,NA,right,FALSE,857.1999998092651
1,2,P25,B,processing,#FFFFFF,#32429a,image26,image248,NA,left,FALSE,766.8000001907349
1,2,P25,B,processing,#FFFFFF,#8d6b3f,image26,image274,NA,left,TRUE,804.5999999046326
1,2,P25,B,processing,#FFFFFF,#a2207b,image26,image308,NA,left,TRUE,807.5999999046326
1,2,1,B,memory-resp,#7d3f75,#FFFFFF,image317,image26,NA,right,TRUE,750
1,2,1,B,memory-resp,#FFFFFF,#265f9c,image26,image79,NA,left,TRUE,904
1,2,1,B,memory-resp,#10b72c,#FFFFFF,image173,image26,NA,right,TRUE,792.5
1,2,1,B,memory-resp,#FFFFFF,#ba6012,image26,image12,NA,left,TRUE,849.5999999046326
1,2,1,B,retrieval,NA,NA,NA,NA,image173,image173,TRUE,1264.7000002861023
1,2,1,B,retrieval,NA,NA,NA,NA,image317,image317,TRUE,3504.0999999046326
1,2,1,B,retrieval,NA,NA,NA,NA,image12,image79,FALSE,3112
1,2,1,B,retrieval,NA,NA,NA,NA,image79,image12,FALSE,1219.8000001907349
1,2,2,B,memory-resp,#ad3e38,#FFFFFF,image103,image26,NA,right,TRUE,898.3999996185303
1,2,2,B,memory-resp,#1098c1,#FFFFFF,image424,image26,NA,right,TRUE,794.4000000953674
1,2,2,B,memory-resp,#FFFFFF,#4e8028,image26,image91,NA,left,TRUE,885.1999998092651
1,2,2,B,memory-resp,#9e1ac7,#FFFFFF,image339,image26,NA,right,TRUE,875.9000000953674
1,2,2,B,retrieval,NA,NA,NA,NA,image91,image91,TRUE,1186.5
1,2,2,B,retrieval,NA,NA,NA,NA,image339,image339,TRUE,3979.8999996185303
1,2,2,B,retrieval,NA,NA,NA,NA,image103,image103,TRUE,1202.5
1,2,2,B,retrieval,NA,NA,NA,NA,image424,image222,FALSE,1266.5
1,2,3,B,memory-resp,#0fb2b8,#FFFFFF,image27,image26,NA,right,TRUE,895.8000001907349
1,2,3,B,memory-resp,#FFFFFF,#77ae3d,image26,image70,NA,left,TRUE,973.5999999046326
1,2,3,B,memory-resp,#740c9d,#FFFFFF,image152,image26,NA,right,TRUE,1113.0999999046326
1,2,3,B,memory-resp,#FFFFFF,#8b4946,image26,image68,NA,left,TRUE,903.0999999046326
1,2,3,B,retrieval,NA,NA,NA,NA,image70,image70,TRUE,1777.4000000953674
1,2,3,B,retrieval,NA,NA,NA,NA,image68,image152,FALSE,2600.5
1,2,3,B,retrieval,NA,NA,NA,NA,image27,image27,TRUE,4593.5
1,2,3,B,retrieval,NA,NA,NA,NA,image152,image68,FALSE,769.5
1,2,4,B,memory-resp,#b12f7d,#FFFFFF,image286,image26,NA,right,TRUE,1238.0999999046326
1,2,4,B,memory-resp,#FFFFFF,#376c52,image26,image335,NA,left,TRUE,841.4000000953674
1,2,4,B,memory-resp,#2a19c2,#FFFFFF,image424,image26,NA,right,TRUE,969.8999996185303
1,2,4,B,memory-resp,#837d44,#FFFFFF,image16,image26,NA,right,TRUE,810.6999998092651
1,2,4,B,retrieval,NA,NA,NA,NA,image424,image335,FALSE,3204.5
1,2,4,B,retrieval,NA,NA,NA,NA,image286,image286,TRUE,924.9000000953674
1,2,4,B,retrieval,NA,NA,NA,NA,image16,image16,TRUE,3115.9000000953674
1,2,4,B,retrieval,NA,NA,NA,NA,image335,image189,FALSE,1716
1,2,5,B,memory-resp,#1d5281,#FFFFFF,image327,image26,NA,right,TRUE,839.2000002861023
1,2,5,B,memory-resp,#7c348d,#FFFFFF,image111,image26,NA,right,TRUE,710.7000002861023
1,2,5,B,memory-resp,#FFFFFF,#3c9a42,image26,image103,NA,left,TRUE,1117.5
1,2,5,B,memory-resp,#c15125,#FFFFFF,image399,image26,NA,right,TRUE,907.8000001907349
1,2,5,B,retrieval,NA,NA,NA,NA,image399,image399,TRUE,1225.2000002861023
1,2,5,B,retrieval,NA,NA,NA,NA,image103,image327,FALSE,3027.7999997138977
1,2,5,B,retrieval,NA,NA,NA,NA,image111,image111,TRUE,1424.1999998092651
1,2,5,B,retrieval,NA,NA,NA,NA,image327,image103,FALSE,549.8000001907349
1,2,6,B,memory-resp,#724fab,#FFFFFF,image89,image26,NA,right,TRUE,1066.5999999046326
1,2,6,B,memory-resp,#ca352f,#FFFFFF,image138,image26,NA,right,TRUE,747.5999999046326
1,2,6,B,memory-resp,#FFFFFF,#1cc4ca,image26,image88,NA,left,TRUE,1184
1,2,6,B,memory-resp,#637830,#FFFFFF,image120,image26,NA,right,TRUE,936.5999999046326
1,2,6,B,retrieval,NA,NA,NA,NA,image138,image89,FALSE,2378
1,2,6,B,retrieval,NA,NA,NA,NA,image89,image138,FALSE,1179.3999996185303
1,2,6,B,retrieval,NA,NA,NA,NA,image120,image88,FALSE,2018.7000002861023
1,2,6,B,retrieval,NA,NA,NA,NA,image88,image120,FALSE,853.9000000953674
1,2,7,B,memory-resp,#8827d3,#FFFFFF,image346,image26,NA,right,TRUE,1061.9000000953674
1,2,7,B,memory-resp,#8c4e22,#FFFFFF,image81,image26,NA,right,TRUE,815.1000003814697
1,2,7,B,memory-resp,#FFFFFF,#3c9914,image26,image35,NA,left,TRUE,1089.7999997138977
1,2,7,B,memory-resp,#FFFFFF,#2693ab,image26,image222,NA,left,TRUE,770.4000000953674
1,2,7,B,retrieval,NA,NA,NA,NA,image35,image35,TRUE,1663.5
1,2,7,B,retrieval,NA,NA,NA,NA,image346,image81,FALSE,2793.7000002861023
1,2,7,B,retrieval,NA,NA,NA,NA,image222,image222,TRUE,2168.8999996185303
1,2,7,B,retrieval,NA,NA,NA,NA,image81,image1,FALSE,2762.8999996185303
1,2,8,B,memory-resp,#FFFFFF,#386b68,image26,image222,NA,left,TRUE,1170
1,2,8,B,memory-resp,#FFFFFF,#a2d40c,image26,image235,NA,left,TRUE,1516.6999998092651
1,2,8,B,memory-resp,#FFFFFF,#3b2a83,image26,image308,NA,left,TRUE,1341.7000002861023
1,2,8,B,memory-resp,#a84d4d,#FFFFFF,image120,image26,NA,right,TRUE,860.4000000953674
1,2,8,B,retrieval,NA,NA,NA,NA,image308,image308,TRUE,1776.6999998092651
1,2,8,B,retrieval,NA,NA,NA,NA,image120,image120,TRUE,2515
1,2,8,B,retrieval,NA,NA,NA,NA,image235,image235,TRUE,1487.1999998092651
1,2,8,B,retrieval,NA,NA,NA,NA,image222,image222,TRUE,512.4000000953674
1,2,9,B,memory-resp,#248a52,#FFFFFF,image140,image26,NA,right,TRUE,1324
1,2,9,B,memory-resp,#FFFFFF,#28128c,image26,image88,NA,left,TRUE,1103.7000002861023
1,2,9,B,memory-resp,#FFFFFF,#c02a75,image26,image342,NA,left,TRUE,891.5
1,2,9,B,memory-resp,#FFFFFF,#9e8f1f,image26,image39,NA,left,TRUE,886.0999999046326
1,2,9,B,retrieval,NA,NA,NA,NA,image88,image88,TRUE,4082.5
1,2,9,B,retrieval,NA,NA,NA,NA,image140,image140,TRUE,2045.6999998092651
1,2,9,B,retrieval,NA,NA,NA,NA,image342,image342,TRUE,2624.5
1,2,9,B,retrieval,NA,NA,NA,NA,image39,image39,TRUE,2541.9000000953674
1,2,10,B,memory-resp,#FFFFFF,#36bf4d,image26,image77,NA,left,TRUE,1053.9000000953674
1,2,10,B,memory-resp,#8f600f,#FFFFFF,image124,image26,NA,right,TRUE,1082.4000000953674
1,2,10,B,memory-resp,#FFFFFF,#863781,image26,image260,NA,left,TRUE,1005.1999998092651
1,2,10,B,memory-resp,#2b4973,#FFFFFF,image216,image26,NA,right,TRUE,973.7000002861023
1,2,10,B,retrieval,NA,NA,NA,NA,image260,image260,TRUE,2556.699999809265
1,2,10,B,retrieval,NA,NA,NA,NA,image124,image124,TRUE,1329.6000003814697
1,2,10,B,retrieval,NA,NA,NA,NA,image77,image77,TRUE,2334.699999809265
1,2,10,B,retrieval,NA,NA,NA,NA,image216,image216,TRUE,4790.199999809265
1,2,11,B,memory-resp,#FFFFFF,#793325,image26,image269,NA,left,TRUE,1114.3000001907349
1,2,11,B,memory-resp,#4798ae,#FFFFFF,image370,image26,NA,right,TRUE,1012.9000000953674
1,2,11,B,memory-resp,#5e8f4d,#FFFFFF,image102,image26,NA,right,TRUE,1069.2999997138977
1,2,11,B,memory-resp,#86309c,#FFFFFF,image188,image26,NA,right,TRUE,941.1999998092651
1,2,11,B,retrieval,NA,NA,NA,NA,image188,image102,FALSE,3519.5999999046326
1,2,11,B,retrieval,NA,NA,NA,NA,image269,image269,TRUE,2178
1,2,11,B,retrieval,NA,NA,NA,NA,image102,image188,FALSE,3526.9000000953674
1,2,11,B,retrieval,NA,NA,NA,NA,image370,image370,TRUE,780.9000000953674
1,2,12,B,memory-resp,#855c23,#FFFFFF,image394,image26,NA,right,TRUE,1568.0999999046326
1,2,12,B,memory-resp,#FFFFFF,#338037,image26,image40,NA,left,TRUE,1250.2999997138977
1,2,12,B,memory-resp,#398fc0,#FFFFFF,image216,image26,NA,right,TRUE,1004.4000000953674
1,2,12,B,memory-resp,#a21696,#FFFFFF,image412,image26,NA,right,TRUE,976.5
1,2,12,B,retrieval,NA,NA,NA,NA,image216,image412,FALSE,5570.5
1,2,12,B,retrieval,NA,NA,NA,NA,image394,image394,TRUE,1100.1999998092651
1,2,12,B,retrieval,NA,NA,NA,NA,image412,image216,FALSE,3756.8999996185303
1,2,12,B,retrieval,NA,NA,NA,NA,image40,image40,TRUE,1398.9000000953674
1,2,13,B,memory-resp,#35a748,#FFFFFF,image195,image26,NA,right,TRUE,1494.5
1,2,13,B,memory-resp,#896a34,#FFFFFF,image222,image26,NA,right,TRUE,1006.7999997138977
1,2,13,B,memory-resp,#FFFFFF,#733474,image26,image233,NA,left,TRUE,1049.8000001907349
1,2,13,B,memory-resp,#FFFFFF,#335775,image26,image339,NA,left,TRUE,849.9000000953674
1,2,13,B,retrieval,NA,NA,NA,NA,image233,image339,FALSE,5859.5
1,2,13,B,retrieval,NA,NA,NA,NA,image195,image195,TRUE,1706.4000000953674
1,2,13,B,retrieval,NA,NA,NA,NA,image339,image339,TRUE,4852.699999809265
1,2,13,B,retrieval,NA,NA,NA,NA,image222,image222,TRUE,790
1,2,14,B,memory-resp,#4d9a37,#FFFFFF,image424,image26,NA,right,TRUE,1278.2000002861023
1,2,14,B,memory-resp,#FFFFFF,#0f73d2,image26,image257,NA,left,TRUE,1110.5999999046326
1,2,14,B,memory-resp,#96449c,#FFFFFF,image120,image26,NA,right,TRUE,905.1000003814697
1,2,14,B,memory-resp,#FFFFFF,#9f5e1e,image26,image58,NA,left,TRUE,1022.1999998092651
1,2,14,B,retrieval,NA,NA,NA,NA,image257,image257,TRUE,1403.5999999046326
1,2,14,B,retrieval,NA,NA,NA,NA,image424,image424,TRUE,4219.800000190735
1,2,14,B,retrieval,NA,NA,NA,NA,image120,image120,TRUE,1289.7999997138977
1,2,14,B,retrieval,NA,NA,NA,NA,image58,image88,FALSE,4024
1,2,15,B,memory-resp,#FFFFFF,#d44521,image26,image330,NA,left,TRUE,1093.2000002861023
1,2,15,B,memory-resp,#5baa4b,#FFFFFF,image385,image26,NA,right,TRUE,1211.7999997138977
1,2,15,B,memory-resp,#FFFFFF,#236e76,image26,image100,NA,left,TRUE,949.9000000953674
1,2,15,B,memory-resp,#6f2574,#FFFFFF,image254,image26,NA,right,TRUE,1286.8000001907349
1,2,15,B,retrieval,NA,NA,NA,NA,image100,image100,TRUE,1933.8999996185303
1,2,15,B,retrieval,NA,NA,NA,NA,image385,image171,FALSE,5765.300000190735
1,2,15,B,retrieval,NA,NA,NA,NA,image330,image330,TRUE,1399.6999998092651
1,2,15,B,retrieval,NA,NA,NA,NA,image254,image254,TRUE,635.3000001907349
1,3,1,A,memory-resp,#289547,#FFFFFF,image123,image26,NA,NULL,FALSE,NA
1,3,1,A,memory-resp,#FFFFFF,#4371b1,image26,image95,NA,NULL,FALSE,NA
1,3,1,A,memory-resp,#97307a,#FFFFFF,image391,image26,NA,NULL,FALSE,NA
1,3,1,A,memory-resp,#c2a10f,#FFFFFF,image195,image26,NA,NULL,FALSE,NA
1,3,1,A,retrieval,NA,NA,NA,NA,image123,image123,TRUE,1269.1000003814697
1,3,1,A,retrieval,NA,NA,NA,NA,image195,image195,TRUE,2320.9000000953674
1,3,1,A,retrieval,NA,NA,NA,NA,image391,image228,FALSE,4585
1,3,1,A,retrieval,NA,NA,NA,NA,image95,image95,TRUE,501.19999980926514
1,3,2,A,memory-resp,#FFFFFF,#9c7511,image26,image397,NA,left,TRUE,2164.7000002861023
1,3,2,A,memory-resp,#2e53cc,#FFFFFF,image327,image26,NA,right,TRUE,1373.3000001907349
1,3,2,A,memory-resp,#FFFFFF,#b01773,image26,image79,NA,right,TRUE,1203.2999997138977
1,3,2,A,memory-resp,#FFFFFF,#198036,image26,image215,NA,right,TRUE,1111.1999998092651
1,3,2,A,retrieval,NA,NA,NA,NA,image397,image79,FALSE,2476.2000002861023
1,3,2,A,retrieval,NA,NA,NA,NA,image215,image215,TRUE,1192.5999999046326
1,3,2,A,retrieval,NA,NA,NA,NA,image327,image397,FALSE,1776.4000000953674
1,3,2,A,retrieval,NA,NA,NA,NA,image79,image294,FALSE,868.8000001907349
1,3,3,A,memory-resp,#FFFFFF,#0eb4b1,image26,image274,NA,NULL,FALSE,NA
1,3,3,A,memory-resp,#FFFFFF,#a84851,image26,image10,NA,NULL,FALSE,NA
1,3,3,A,memory-resp,#FFFFFF,#7aa249,image26,image369,NA,NULL,FALSE,NA
1,3,3,A,memory-resp,#FFFFFF,#754691,image26,image34,NA,NULL,FALSE,NA
1,3,3,A,retrieval,NA,NA,NA,NA,image10,image369,FALSE,2214.2000002861023
1,3,3,A,retrieval,NA,NA,NA,NA,image369,image10,FALSE,2092.6000003814697
1,3,3,A,retrieval,NA,NA,NA,NA,image274,image34,FALSE,832.0999999046326
1,3,3,A,retrieval,NA,NA,NA,NA,image34,image150,FALSE,1193.4000000953674
1,3,4,A,memory-resp,#749d0b,#FFFFFF,image351,image26,NA,right,FALSE,1735.7000002861023
1,3,4,A,memory-resp,#FFFFFF,#89413e,image26,image145,NA,left,TRUE,1031.5
1,3,4,A,memory-resp,#4c169c,#FFFFFF,image320,image26,NA,right,FALSE,1135.4000000953674
1,3,4,A,memory-resp,#FFFFFF,#2f7d7f,image26,image171,NA,left,TRUE,1017.9000000953674
1,3,4,A,retrieval,NA,NA,NA,NA,image171,image171,TRUE,4155.199999809265
1,3,4,A,retrieval,NA,NA,NA,NA,image145,image145,TRUE,743.5999999046326
1,3,4,A,retrieval,NA,NA,NA,NA,image320,image320,TRUE,926.1999998092651
1,3,4,A,retrieval,NA,NA,NA,NA,image351,image54,FALSE,3207.800000190735
1,3,5,A,memory-resp,#4027ce,#FFFFFF,image410,image26,NA,right,TRUE,1230.5
1,3,5,A,memory-resp,#0d9163,#FFFFFF,image215,image26,NA,right,FALSE,962.5
1,3,5,A,memory-resp,#FFFFFF,#b03667,image26,image239,NA,left,TRUE,933.5
1,3,5,A,memory-resp,#FFFFFF,#c1c12f,image26,image62,NA,left,TRUE,1110.6999998092651
1,3,5,A,retrieval,NA,NA,NA,NA,image62,image62,TRUE,1622.1999998092651
1,3,5,A,retrieval,NA,NA,NA,NA,image239,image43,FALSE,5591
1,3,5,A,retrieval,NA,NA,NA,NA,image215,image215,TRUE,1668.5999999046326
1,3,5,A,retrieval,NA,NA,NA,NA,image410,image410,TRUE,685.5
1,3,6,A,memory-resp,#dd1d23,#FFFFFF,image215,image26,NA,NULL,FALSE,NA
1,3,6,A,memory-resp,#FFFFFF,#6a950f,image26,image393,NA,NULL,FALSE,NA
1,3,6,A,memory-resp,#382178,#FFFFFF,image174,image26,NA,NULL,FALSE,NA
1,3,6,A,memory-resp,#FFFFFF,#1d9181,image26,image394,NA,NULL,FALSE,NA
1,3,6,A,retrieval,NA,NA,NA,NA,image215,image174,FALSE,2293.9000000953674
1,3,6,A,retrieval,NA,NA,NA,NA,image174,image215,FALSE,3005.5
1,3,6,A,retrieval,NA,NA,NA,NA,image394,image394,TRUE,2457.699999809265
1,3,6,A,retrieval,NA,NA,NA,NA,image393,image393,TRUE,720.5999999046326
1,3,7,A,memory-resp,#FFFFFF,#5d8334,image26,image239,NA,left,TRUE,1250.1999998092651
1,3,7,A,memory-resp,#229b8d,#FFFFFF,image128,image26,NA,right,TRUE,1214.8999996185303
